* Sea-Bird SBE19plus Data File:
* FileName = C:\data\otf\2007\ctd-07104.hex
* Software Version 1.55
* Temperature SN =  5061
* Conductivity SN =  5061
* System UpLoad Time = Aug 15 2007 16:34:30
* ds
* SeacatPlus V 1.6a  SERIAL NO. 5061    15 Aug 2007  15:31:53
* vbatt = 10.9, vlith =  8.7, ioper =  61.6 ma, ipump =  57.5 ma, 
* iext01 =  95.2 ma
* iext23 =  58.1 ma
* 
* status = not logging
* number of scans to average = 1
* samples = 153039, free = 288466, casts = 154
* mode = profile, minimum cond freq = 3000, pump delay = 60 sec
* autorun = no, ignore magnetic switch = no
* battery type = alkaline, battery cutoff =  7.3 volts
* pressure sensor = strain gauge, range = 870.0
* SBE 38 = no, Gas Tension Device = no
* Ext Volt 0 = yes, Ext Volt 1 = yes, Ext Volt 2 = yes, Ext Volt 3 = yes
* echo commands = yes
* output format = raw HEX
* S>
* 
* SeacatPlus V 1.6a  SERIAL NO. 5061    15 Aug 2007  15:32:18
* temperature:  05-oct-06
*     TA0 = 1.254184e-03
*     TA1 = 2.596730e-04
*     TA2 = 5.165612e-07
*     TA3 = 1.318931e-07
*     TOFFSET = 0.000000e+00
* conductivity:  05-oct-06
*     G = -9.978144e-01
*     H = 1.555200e-01
*     I = -4.839108e-04
*     J = 6.121100e-05
*     CF0 = 2.539936e+03
*     CPCOR = -9.570000e-08
*     CTCOR = 3.250000e-06
*     CSLOPE = 1.000000e+00
* pressure S/N = 2362539, range = 870 psia:  24-aug-06
*     PA0 = 2.171091e-01
*     PA1 = 2.647085e-03
*     PA2 = 1.419397e-11
*     PTCA0 = 5.242437e+05
*     PTCA1 = 7.545345e+00
*     PTCA2 = -1.835354e-01
*     PTCB0 = 2.537125e+01
*     PTCB1 = -1.750000e-03
*     PTCB2 = 0.000000e+00
*     PTEMPA0 = -5.753989e+01
*     PTEMPA1 = 5.235813e+01
*     PTEMPA2 = -4.015521e-02
*     POFFSET = 0.000000e+00
* volt 0: offset = -4.682842e-02, slope = 1.249147e+00
* volt 1: offset = -4.695158e-02, slope = 1.248145e+00
* volt 2: offset = -4.685263e-02, slope = 1.248783e+00
* volt 3: offset = -4.690316e-02, slope = 1.249508e+00
*     EXTFREQSF = 1.000002e+00
* dh
* cast 104 20 Jul 2007 11:23:32 samples 66869 to 67125, avg = 4, stop = mag switch
* S> 
# nquan = 10
# nvalues = 125                         
# units = specified
# name 0 = depSM: Depth [salt water, m]
# name 1 = tv290C: Temperature [ITS-90, deg C]
# name 2 = sal00: Salinity [PSU]
# name 3 = sbeox0Mg/L: Oxygen, SBE 43 [mg/l]
# name 4 = sbeox0PS: Oxygen, SBE 43 [% saturation]
# name 5 = sigma-t00: Density [sigma-t, Kg/m^3 ]
# name 6 = par: PAR/Irradiance, Biospherical/Licor
# name 7 = prdM: Pressure, Strain Gauge [db]
# name 8 = flECO-AFL: Fluorescence, Wetlab ECO-AFL/FL [mg/m^3]
# name 9 = flag: flag
# span 0 =      1.000,     64.000       
# span 1 =     8.6790,     8.7752       
# span 2 =    31.3431,    31.3695       
# span 3 =    8.89975,   11.57047       
# span 4 =   93.51351,  101.42547       
# span 5 =    24.2923,    24.3232       
# span 6 = 1.5528e+00, 3.7729e+02       
# span 7 =      1.805,     63.443       
# span 8 =     0.8008,     1.6339       
# span 9 = 0.0000e+00, 0.0000e+00       
# interval = meters: 1                  
# start_time = Jul 20 2007 11:23:32
# bad_flag = -9.990e-29
# sensor 0 = Frequency 0  temperature, 5061, 05-Oct-06
# sensor 1 = Frequency 1  conductivity, 5061, 05-Oct-06, cpcor = -9.5700e-08
# sensor 2 = Pressure Number
# sensor 3 = Extrnl Volt  0  irradiance (PAR), primary, 4751, 08/10/06
# sensor 4 = Extrnl Volt  1  Oxygen, SBE, primary, 1081, 10/24/06
# sensor 5 = Extrnl Volt  2  WET Labs, ECO_AFL
# sensor 6 = Extrnl Volt  3  userpoly 0, 0627, 10/11/06
# datcnv_date = Oct 15 2007 14:49:47, 5.37e
# datcnv_in = I:\bob d\OTF_GEM\2007\ctd-07104.hex I:\Willette\OTF\CTD\5061.con
# datcnv_skipover = 0
# filter_date = Oct 15 2007 15:02:29, 5.37e
# filter_in = I:\Willette\OTF\CTD\2007\CTD Data\ctd-07104.cnv
# filter_low_pass_tc_A = 1.000
# filter_low_pass_tc_B = 0.150
# filter_low_pass_A_vars = prdM
# filter_low_pass_B_vars =
# loopedit_date = Oct 15 2007 15:06:50, 5.37e
# loopedit_in = I:\Willette\OTF\CTD\2007\CTD Data\ctd-07104.cnv
# loopedit_minVelocity = 0.250                                                                                            
# loopedit_surfaceSoak: minDepth = 5.0, maxDepth = 20, useDeckPress = 1                                                   
# loopedit_excl_bad_scans = yes
# alignctd_date = Oct 15 2007 15:14:18, 5.37e
# alignctd_in = I:\Willette\OTF\CTD\2007\CTD Data\ctd-07104.cnv
# alignctd_adv = tv290C 0.500, sbeox0Mg/L 4.000, sbeox0PS 4.000                                                                                                                                                                      
# binavg_date = Oct 15 2007 15:18:46, 5.37e
# binavg_in = I:\Willette\OTF\CTD\2007\CTD Data\ctd-07104.cnv
# binavg_bintype = meters
# binavg_binsize = 1
# binavg_excl_bad_scans = yes
# binavg_skipover = 0
# binavg_surface_bin = no, min = 0.000, max = 0.000, value = 0.000
# file_type = ascii
*END*
      3.000     8.6957    31.3651    9.15467   96.22225    24.3131 1.8177e+02      4.159     0.8008 0.0000e+00
      4.000     8.6959    31.3613    9.03511   94.95683    24.3136 1.7991e+02      4.815     0.8245 0.0000e+00
      5.000     8.6955    31.3646    8.93212   93.86489    24.3183 1.9099e+02      5.504     1.0146 0.0000e+00
      6.000     8.6955    31.3666    8.89975   93.51351    24.3202 1.7293e+02      6.403     1.6042 0.0000e+00
      7.000     8.6933    31.3667    9.11770   95.80224    24.3204 1.5809e+02      7.342     1.6339 0.0000e+00
      8.000     8.6934    31.3581    9.28018   97.50526    24.3139 1.4143e+02      8.327     1.6285 0.0000e+00
      9.000     8.6888    31.3695    9.38762   98.63329    24.3232 1.2986e+02      9.422     1.6172 0.0000e+00
     10.000     8.6908    31.3481    9.43989   99.18502    24.3060 1.1152e+02     10.432     1.5354 0.0000e+00
     11.000     8.6902    31.3576    9.46477   99.44486    24.3141 9.3742e+01     11.290     1.5216 0.0000e+00
     12.000     8.6892    31.3529    9.49230   99.73261    24.3102 8.0877e+01     12.307     1.5330 0.0000e+00
     13.000     8.6894    31.3534    9.50597   99.87635    24.3110 6.8384e+01     13.141     1.5270 0.0000e+00
     14.000     8.6896    31.3539    9.52018  100.02893    24.3114 5.7944e+01     14.060     1.5514 0.0000e+00
     15.000     8.6972    31.3518    9.53395  100.17315    24.3096 4.9161e+01     14.784     1.5441 0.0000e+00
     16.000     8.6931    31.3590    9.54590  100.29705    24.3146 4.0394e+01     16.056     1.5275 0.0000e+00
     17.000     8.6887    31.3516    9.55247  100.35658    24.3090 3.4123e+01     17.602     1.5485 0.0000e+00
     18.000     8.6877    31.3455    9.56397  100.47266    24.3047 2.8704e+01     18.756     1.5501 0.0000e+00
     19.000     8.6858    31.3451    9.57313  100.56828    24.3046 2.4362e+01     19.722     1.5569 0.0000e+00
     20.000     8.6854    31.3444    9.57766  100.61595    24.3042 2.0741e+01     20.523     1.5601 0.0000e+00
     21.000     8.6859    31.3444    9.58145  100.65644    24.3043 1.7511e+01     21.365     1.5730 0.0000e+00
     22.000     8.6864    31.3451    9.58909  100.73730    24.3050 1.4866e+01     22.255     1.5655 0.0000e+00
     23.000 -9.990e-29 -9.990e-29 -9.990e-29 -9.990e-29 -9.990e-29 -9.990e-29 -9.990e-29 -9.990e-29 -9.990e-29
     24.000     8.6858    31.3451    9.60208  100.87314    24.3048 1.1186e+01     23.551     1.5868 0.0000e+00
     25.000     8.6853    31.3443    9.60696  100.92437    24.3043 9.0942e+00     24.836     1.5471 0.0000e+00
     26.000     8.6866    31.3446    9.60817  100.93732    24.3046 7.8005e+00     25.843     1.5574 0.0000e+00
     27.000     8.6868    31.3453    9.61010  100.95804    24.3052 6.6981e+00     27.100     1.6016 0.0000e+00
     28.000     8.6860    31.3437    9.61824  101.04376    24.3035 5.8590e+00     28.060     1.5287 0.0000e+00
     29.000     8.6846    31.3444    9.62222  101.08644    24.3043 5.1392e+00     29.011     1.5505 0.0000e+00
     30.000     8.6792    31.3444    9.62852  101.15343    24.3044 4.4883e+00     30.474     1.4855 0.0000e+00
     31.000     8.6791    31.3445    9.62921  101.16089    24.3050 4.0372e+00     31.353     1.4945 0.0000e+00
     32.000     8.6790    31.3455    9.62998  101.16885    24.3061 3.6375e+00     32.341     1.4582 0.0000e+00
     33.000     8.6794    31.3459    9.62829  101.15191    24.3066 3.2841e+00     33.236     1.4040 0.0000e+00
     34.000     8.6795    31.3461    9.62832  101.15285    24.3067 2.9823e+00     34.558     1.4179 0.0000e+00
     35.000     8.6794    31.3457    9.62831  101.15310    24.3063 2.7435e+00     35.673     1.4306 0.0000e+00
     36.000     8.6794    31.3460    9.62466  101.11486    24.3066 2.5375e+00     36.911     1.4391 0.0000e+00
     37.000     8.6794    31.3459    9.62873  101.15873    24.3066 2.3777e+00     37.773     1.4217 0.0000e+00
     38.000     8.6796    31.3458    9.63414  101.21623    24.3064 2.2387e+00     38.586     1.3979 0.0000e+00
     39.000     8.6797    31.3459    9.63945  101.27177    24.3065 2.1176e+00     39.607     1.3980 0.0000e+00
     40.000     8.6799    31.3459    9.64254  101.30468    24.3065 2.0307e+00     40.380     1.3867 0.0000e+00
     41.000     8.6804    31.3459    9.64189  101.29787    24.3065 1.9502e+00     41.145     1.3933 0.0000e+00
     42.000     8.6803    31.3461    9.64257  101.30576    24.3066 1.8794e+00     42.059     1.3869 0.0000e+00
     43.000     8.6805    31.3456    9.64600  101.34293    24.3061 1.8220e+00     43.040     1.3868 0.0000e+00
     44.000     8.6806    31.3461    9.64914  101.37836    24.3065 1.7728e+00     44.448     1.3674 0.0000e+00
     45.000     8.6810    31.3457    9.65320  101.42547    24.3061 1.7347e+00     45.591     1.3236 0.0000e+00
     46.000     8.6811    31.3461    9.65106  101.40358    24.3065 1.7031e+00     46.928     1.2998 0.0000e+00
     47.000     8.6812    31.3460    9.65189  101.41360    24.3063 1.6785e+00     47.580     1.3382 0.0000e+00
     48.000     8.6815    31.3457    9.64582  101.35054    24.3062 1.6531e+00     48.866     1.3233 0.0000e+00
     49.000     8.6815    31.3459    9.64472  101.33820    24.3062 1.6388e+00     49.786     1.3295 0.0000e+00
     50.000     8.6820    31.3457    9.63177  101.20346    24.3060 1.6228e+00     50.557     1.3159 0.0000e+00
     51.000     8.6823    31.3453    9.61510  101.02747    24.3059 1.6093e+00     51.519     1.3174 0.0000e+00
     52.000     8.6822    31.3454    9.60155  100.88382    24.3058 1.5992e+00     52.574     1.3067 0.0000e+00
     53.000     8.6823    31.3455    9.62328  101.11257    24.3058 1.5904e+00     53.636     1.3017 0.0000e+00
     54.000     8.6824    31.3452    9.62403  101.12016    24.3056 1.5837e+00     54.325     1.2159 0.0000e+00
     55.000     8.6825    31.3456    9.63333  101.21826    24.3058 1.5764e+00     55.267     1.2413 0.0000e+00
     56.000     8.6836    31.3451    9.62909  101.17359    24.3054 1.5720e+00     56.494     1.2061 0.0000e+00
     57.000     8.6836    31.3463    9.62259  101.10507    24.3064 1.5680e+00     57.145     1.1888 0.0000e+00
     58.000     8.6846    31.3450    9.63167  101.20033    24.3052 1.5643e+00     58.077     1.1736 0.0000e+00
     59.000     8.6866    31.3451    9.63666  101.25324    24.3053 1.5611e+00     58.964     1.1686 0.0000e+00
     60.000     8.6865    31.3465    9.63662  101.25543    24.3062 1.5589e+00     59.787     1.1605 0.0000e+00
     61.000     8.6871    31.3448    9.63685  101.25968    24.3046 1.5569e+00     60.578     1.1383 0.0000e+00
     62.000     8.6873    31.3452    9.63388  101.22581    24.3049 1.5556e+00     61.372     1.1147 0.0000e+00
     63.000     8.6871    31.3450    9.63015  101.18947    24.3045 1.5536e+00     62.148     1.1043 0.0000e+00
     64.000     8.6875    31.3449    9.63302  101.21598    24.3046 1.5531e+00     63.443     1.1479 0.0000e+00
     63.000     8.6886    31.3446    9.62959  101.17599    24.3041 1.5528e+00     63.128     1.1072 0.0000e+00
     62.000     8.6876    31.3445    9.62202  101.09478    24.3042 1.5545e+00     62.168     1.0989 0.0000e+00
     61.000     8.6872    31.3447    9.62899  101.16824    24.3043 1.5562e+00     61.338     1.0986 0.0000e+00
     60.000     8.6868    31.3450    9.63824  101.26492    24.3047 1.5583e+00     60.215     1.0882 0.0000e+00
     59.000     8.6865    31.3446    9.63417  101.22015    24.3045 1.5605e+00     59.405     1.0801 0.0000e+00
     58.000     8.6862    31.3448    9.63629  101.24208    24.3046 1.5636e+00     58.468     1.0823 0.0000e+00
     57.000     8.6865    31.3448    9.63968  101.27627    24.3046 1.5669e+00     57.399     1.0622 0.0000e+00
     56.000     8.6848    31.3456    9.64040  101.28257    24.3052 1.5716e+00     56.591     1.0607 0.0000e+00
     55.000     8.6850    31.3443    9.63338  101.20859    24.3044 1.5762e+00     55.418     1.0480 0.0000e+00
     54.000     8.6847    31.3455    9.62574  101.12859    24.3054 1.5820e+00     54.525     1.0590 0.0000e+00
     53.000     8.6849    31.3454    9.63564  101.23313    24.3053 1.5895e+00     53.458     1.0341 0.0000e+00
     52.000     8.6845    31.3450    9.63342  101.20863    24.3050 1.5983e+00     52.478     1.0587 0.0000e+00
     51.000     8.6835    31.3451    9.62605  101.13140    24.3051 1.6091e+00     51.522     1.0441 0.0000e+00
     50.000     8.6837    31.3454    9.63367  101.21125    24.3056 1.6215e+00     50.251     1.0710 0.0000e+00
     49.000     8.6826    31.3455    9.62849  101.15831    24.3056 1.6371e+00     49.457     1.0248 0.0000e+00
     48.000     8.6825    31.3455    9.62960  101.17137    24.3057 1.6550e+00     48.544     1.0401 0.0000e+00
     47.000     8.6820    31.3460    9.63521  101.22954    24.3062 1.6767e+00     47.495     1.0408 0.0000e+00
     46.000     8.6826    31.3456    9.62923  101.16496    24.3058 1.7039e+00     46.403     1.0235 0.0000e+00
     45.000     8.6829    31.3456    9.63034  101.17320    24.3059 1.7359e+00     45.345     1.0173 0.0000e+00
     44.000     8.6820    31.3453    9.62967  101.16656    24.3056 1.7749e+00     44.453     1.0110 0.0000e+00
     43.000     8.6820    31.3465    9.63403  101.21719    24.3068 1.8209e+00     43.008     1.0035 0.0000e+00
     42.000     8.6824    31.3461    9.62762  101.15553    24.3063 1.8763e+00     42.323     0.9970 0.0000e+00
     41.000     8.6826    31.3460    9.63027  101.18973    24.3061 1.9423e+00     41.509     0.9734 0.0000e+00
     40.000     8.6835    31.3464    9.63893  101.28377    24.3064 2.0215e+00     40.255     0.9901 0.0000e+00
     39.000     8.6828    31.3460    9.64003  101.29502    24.3060 2.1232e+00     39.437     0.9744 0.0000e+00
     38.000     8.6819    31.3466    9.64191  101.31498    24.3066 2.2368e+00     38.050     1.0019 0.0000e+00
     37.000     8.6809    31.3455    9.64080  101.30417    24.3058 2.3838e+00     37.346     0.9753 0.0000e+00
     36.000     8.6809    31.3458    9.63836  101.27900    24.3061 2.5498e+00     36.470     0.9703 0.0000e+00
     35.000     8.6826    31.3457    9.62340  101.12176    24.3061 2.7623e+00     35.324     0.9925 0.0000e+00
     34.000     8.6857    31.3459    9.60047  100.88095    24.3061 2.9899e+00     34.329     1.0028 0.0000e+00
     33.000     8.6894    31.3454    9.60247  100.90261    24.3052 3.3061e+00     33.369     0.9967 0.0000e+00
     32.000     8.6900    31.3440    9.61974  101.08390    24.3037 3.6622e+00     32.404     0.9792 0.0000e+00
     31.000     8.6902    31.3435    9.63003  101.19187    24.3030 4.1003e+00     31.269     0.9677 0.0000e+00
     30.000     8.6903    31.3433    9.63263  101.21940    24.3029 4.6049e+00     30.379     0.9837 0.0000e+00
     29.000     8.6908    31.3435    9.63454  101.23884    24.3030 5.2452e+00     29.263     0.9698 0.0000e+00
     28.000     8.6908    31.3436    9.63647  101.26045    24.3030 6.0250e+00     28.303     0.9724 0.0000e+00
     27.000     8.6910    31.3433    9.63855  101.28290    24.3027 6.9755e+00     27.219     0.9831 0.0000e+00
     26.000     8.6912    31.3432    9.63864  101.28355    24.3027 8.1402e+00     26.276     0.9735 0.0000e+00
     25.000     8.6911    31.3432    9.63759  101.27403    24.3027 9.5360e+00     25.251     0.9645 0.0000e+00
     24.000     8.6911    31.3432    9.63935  101.29554    24.3027 1.1105e+01     24.194     0.9835 0.0000e+00
     23.000     8.6911    31.3433    9.63206  101.21673    24.3027 1.3236e+01     23.247     0.9584 0.0000e+00
     22.000     8.6910    31.3437    9.63607  101.25749    24.3031 1.5663e+01     22.236     0.9416 0.0000e+00
     21.000     8.6909    31.3432    9.64404  101.34031    24.3027 1.8702e+01     21.182     0.9920 0.0000e+00
     20.000     8.6918    31.3436    9.64023  101.29991    24.3030 2.2119e+01     20.197     0.9902 0.0000e+00
     19.000     8.6919    31.3432    9.63740  101.27031    24.3026 2.6655e+01     19.075     0.9676 0.0000e+00
     18.000     8.6914    31.3431    9.63808  101.28205    24.3025 3.1857e+01     18.247     1.0099 0.0000e+00
     17.000     8.6933    31.3435    9.64145  101.32727    24.3029 3.8020e+01     17.022     1.0151 0.0000e+00
     16.000     8.6928    31.3438    9.63660  101.28060    24.3028 4.6063e+01     16.183     1.0172 0.0000e+00
     15.000     8.6919    31.3435    9.63998  101.32215    24.3027 5.5148e+01     15.096     1.0275 0.0000e+00
     14.000     8.6916    31.3436    9.64025  101.32888    24.3028 6.6769e+01     14.082     1.0537 0.0000e+00
     13.000     8.6911    31.3435    9.63581  101.29084    24.3028 8.0002e+01     13.098     1.0418 0.0000e+00
     12.000     8.6914    31.3436    9.64063  101.39200    24.3029 9.7074e+01     12.055     1.0674 0.0000e+00
     11.000     8.6922    31.3436    9.63378  101.38982    24.3030 1.1597e+02     11.040     1.0638 0.0000e+00
     10.000     8.6942    31.3446    9.63290  101.40461    24.3038 1.3771e+02     10.051     1.1301 0.0000e+00
      9.000     8.6980    31.3447    9.61953  101.27511    24.3033 1.7023e+02      9.075     1.0601 0.0000e+00
      8.000     8.6999    31.3445    9.53869  100.42339    24.3027 2.1448e+02      8.188     1.0705 0.0000e+00
      7.000     8.7026    31.3444   10.58629   99.40156    24.3023 2.6074e+02      7.065     1.0121 0.0000e+00
      6.000     8.7039    31.3443   11.57047   99.25508    24.3018 3.0648e+02      6.128     1.0269 0.0000e+00
      5.000     8.7090    31.3445   11.40034   99.33312    24.3018 3.5782e+02      5.195     1.0008 0.0000e+00
      4.000     8.7308    31.3452   11.43182   99.31133    24.3019 3.7729e+02      4.308     0.9460 0.0000e+00
      3.000     8.7602    31.3511   11.45808   99.29125    24.3035 2.3547e+02      3.310     0.8706 0.0000e+00
      2.000     8.7707    31.3482 -9.990e-29 -9.990e-29    24.2968 1.8709e+02      2.483     0.8284 0.0000e+00
      1.000     8.7752    31.3447 -9.990e-29 -9.990e-29    24.2923 3.0605e+02      1.805     0.8118 0.0000e+00
