* Sea-Bird SBE19plus Data File:
* FileName = C:\data\otf\2007\ctd-07034.hex
* Software Version 1.55
* Temperature SN =  5061
* Conductivity SN =  5061
* System UpLoad Time = Aug 15 2007 16:05:26
* ds
* SeacatPlus V 1.6a  SERIAL NO. 5061    15 Aug 2007  15:31:53
* vbatt = 10.9, vlith =  8.7, ioper =  61.6 ma, ipump =  57.5 ma, 
* iext01 =  95.2 ma
* iext23 =  58.1 ma
* 
* status = not logging
* number of scans to average = 1
* samples = 153039, free = 288466, casts = 154
* mode = profile, minimum cond freq = 3000, pump delay = 60 sec
* autorun = no, ignore magnetic switch = no
* battery type = alkaline, battery cutoff =  7.3 volts
* pressure sensor = strain gauge, range = 870.0
* SBE 38 = no, Gas Tension Device = no
* Ext Volt 0 = yes, Ext Volt 1 = yes, Ext Volt 2 = yes, Ext Volt 3 = yes
* echo commands = yes
* output format = raw HEX
* S>
* 
* SeacatPlus V 1.6a  SERIAL NO. 5061    15 Aug 2007  15:32:18
* temperature:  05-oct-06
*     TA0 = 1.254184e-03
*     TA1 = 2.596730e-04
*     TA2 = 5.165612e-07
*     TA3 = 1.318931e-07
*     TOFFSET = 0.000000e+00
* conductivity:  05-oct-06
*     G = -9.978144e-01
*     H = 1.555200e-01
*     I = -4.839108e-04
*     J = 6.121100e-05
*     CF0 = 2.539936e+03
*     CPCOR = -9.570000e-08
*     CTCOR = 3.250000e-06
*     CSLOPE = 1.000000e+00
* pressure S/N = 2362539, range = 870 psia:  24-aug-06
*     PA0 = 2.171091e-01
*     PA1 = 2.647085e-03
*     PA2 = 1.419397e-11
*     PTCA0 = 5.242437e+05
*     PTCA1 = 7.545345e+00
*     PTCA2 = -1.835354e-01
*     PTCB0 = 2.537125e+01
*     PTCB1 = -1.750000e-03
*     PTCB2 = 0.000000e+00
*     PTEMPA0 = -5.753989e+01
*     PTEMPA1 = 5.235813e+01
*     PTEMPA2 = -4.015521e-02
*     POFFSET = 0.000000e+00
* volt 0: offset = -4.682842e-02, slope = 1.249147e+00
* volt 1: offset = -4.695158e-02, slope = 1.248145e+00
* volt 2: offset = -4.685263e-02, slope = 1.248783e+00
* volt 3: offset = -4.690316e-02, slope = 1.249508e+00
*     EXTFREQSF = 1.000002e+00
* dh
* cast  34 08 Jul 2007 06:28:24 samples 38309 to 38521, avg = 4, stop = mag switch
* S> 
# nquan = 10
# nvalues = 93                          
# units = specified
# name 0 = depSM: Depth [salt water, m]
# name 1 = tv290C: Temperature [ITS-90, deg C]
# name 2 = sal00: Salinity [PSU]
# name 3 = sbeox0Mg/L: Oxygen, SBE 43 [mg/l]
# name 4 = sbeox0PS: Oxygen, SBE 43 [% saturation]
# name 5 = sigma-t00: Density [sigma-t, Kg/m^3 ]
# name 6 = par: PAR/Irradiance, Biospherical/Licor
# name 7 = prdM: Pressure, Strain Gauge [db]
# name 8 = flECO-AFL: Fluorescence, Wetlab ECO-AFL/FL [mg/m^3]
# name 9 = flag: flag
# span 0 =      1.000,     48.000       
# span 1 =     8.6121,     9.2070       
# span 2 =    30.3855,    30.8406       
# span 3 =    9.28437,   11.76832       
# span 4 =   97.79504,  105.32544       
# span 5 =    23.4835,    23.9207       
# span 6 = 1.5495e+00, 4.5725e+01       
# span 7 =      1.775,     47.252       
# span 8 =     0.5809,     0.9130       
# span 9 = 0.0000e+00, 0.0000e+00       
# interval = meters: 1                  
# start_time = Jul 08 2007 06:28:24
# bad_flag = -9.990e-29
# sensor 0 = Frequency 0  temperature, 5061, 05-Oct-06
# sensor 1 = Frequency 1  conductivity, 5061, 05-Oct-06, cpcor = -9.5700e-08
# sensor 2 = Pressure Number
# sensor 3 = Extrnl Volt  0  irradiance (PAR), primary, 4751, 08/10/06
# sensor 4 = Extrnl Volt  1  Oxygen, SBE, primary, 1081, 10/24/06
# sensor 5 = Extrnl Volt  2  WET Labs, ECO_AFL
# sensor 6 = Extrnl Volt  3  userpoly 0, 0627, 10/11/06
# datcnv_date = Oct 15 2007 14:49:44, 5.37e
# datcnv_in = I:\bob d\OTF_GEM\2007\ctd-07034.hex I:\Willette\OTF\CTD\5061.con
# datcnv_skipover = 0
# filter_date = Oct 15 2007 15:02:23, 5.37e
# filter_in = I:\Willette\OTF\CTD\2007\CTD Data\ctd-07034.cnv
# filter_low_pass_tc_A = 1.000
# filter_low_pass_tc_B = 0.150
# filter_low_pass_A_vars = prdM
# filter_low_pass_B_vars =
# loopedit_date = Oct 15 2007 15:06:46, 5.37e
# loopedit_in = I:\Willette\OTF\CTD\2007\CTD Data\ctd-07034.cnv
# loopedit_minVelocity = 0.250                                                                                            
# loopedit_surfaceSoak: minDepth = 5.0, maxDepth = 20, useDeckPress = 1                                                   
# loopedit_excl_bad_scans = yes
# alignctd_date = Oct 15 2007 15:14:14, 5.37e
# alignctd_in = I:\Willette\OTF\CTD\2007\CTD Data\ctd-07034.cnv
# alignctd_adv = tv290C 0.500, sbeox0Mg/L 4.000, sbeox0PS 4.000                                                                                                                                                                      
# binavg_date = Oct 15 2007 15:18:43, 5.37e
# binavg_in = I:\Willette\OTF\CTD\2007\CTD Data\ctd-07034.cnv
# binavg_bintype = meters
# binavg_binsize = 1
# binavg_excl_bad_scans = yes
# binavg_skipover = 0
# binavg_surface_bin = no, min = 0.000, max = 0.000, value = 0.000
# file_type = ascii
*END*
      3.000     9.1679    30.3855    9.28437   97.79504    23.4835 1.4917e+01      4.342     0.6560 0.0000e+00
      4.000     9.1716    30.3959    9.36672   98.53452    23.4911 9.7371e+00      5.026     0.6824 0.0000e+00
      5.000     9.1766    30.3981    9.48387   99.69750    23.4913 6.6225e+00      5.987     0.6772 0.0000e+00
      6.000     9.1842    30.4012    9.57190  100.61147    23.4931 4.6020e+00      6.877     0.6890 0.0000e+00
      7.000     9.1936    30.4058    9.60712  100.97526    23.4960 3.2362e+00      7.889     0.7319 0.0000e+00
      8.000     9.1960    30.4144    9.65232  101.44076    23.5016 2.6139e+00      8.665     0.7515 0.0000e+00
      9.000     9.2011    30.4153    9.67313  101.62856    23.5010 2.1367e+00      9.651     0.7566 0.0000e+00
     10.000     9.2070    30.4195    9.64755  101.32072    23.5039 1.8734e+00     10.975     0.7567 0.0000e+00
     11.000     9.2039    30.4287    9.69020  101.75787    23.5105 1.7757e+00     11.483     0.7567 0.0000e+00
     12.000     9.1939    30.4327    9.69756  101.82161    23.5131 1.6867e+00     12.267     0.7652 0.0000e+00
     13.000     9.1638    30.4361    9.69134  101.75295    23.5157 1.6255e+00     13.359     0.7840 0.0000e+00
     14.000     9.1344    30.4377    9.71928  102.04734    23.5186 1.5967e+00     14.289     0.8011 0.0000e+00
     15.000 -9.990e-29 -9.990e-29 -9.990e-29 -9.990e-29 -9.990e-29 -9.990e-29 -9.990e-29 -9.990e-29 -9.990e-29
     16.000     9.0662    30.4547    9.71955  102.04827    23.5376 1.5701e+00     15.628     0.7788 0.0000e+00
     17.000     9.0020    30.4596    9.70509  101.89225    23.5472 1.5606e+00     16.837     0.7504 0.0000e+00
     18.000     8.9461    30.4913    9.76745  102.54579    23.5809 1.5577e+00     17.736     0.7090 0.0000e+00
     19.000     8.9247    30.5202    9.72861  102.14382    23.6098 1.5555e+00     18.498     0.6971 0.0000e+00
     20.000     8.9166    30.5579    9.74680  102.33873    23.6475 1.5545e+00     19.334     0.6938 0.0000e+00
     21.000     8.9151    30.5904    9.78400  102.71455    23.6792 1.5538e+00     20.380     0.6688 0.0000e+00
     22.000     8.9090    30.5955    9.75164  102.35961    23.6841 1.5532e+00     21.588     0.6958 0.0000e+00
     23.000     8.8858    30.5992    9.74997  102.32887    23.6879 1.5531e+00     22.953     0.6829 0.0000e+00
     24.000     8.8705    30.6069    9.76899  102.52143    23.6962 1.5528e+00     23.920     0.6625 0.0000e+00
     25.000     8.8589    30.6103    9.77039  102.53138    23.7022 1.5527e+00     25.192     0.6632 0.0000e+00
     26.000     8.8605    30.6171    9.77552  102.58479    23.7089 1.5525e+00     26.193     0.6319 0.0000e+00
     27.000     8.8586    30.6147    9.76716  102.49048    23.7072 1.5525e+00     27.135     0.6199 0.0000e+00
     28.000     8.8571    30.6188    9.78259  102.61519    23.7107 1.5522e+00     28.303     0.6195 0.0000e+00
     29.000     8.8615    30.6234    9.78828  102.52829    23.7147 1.5521e+00     29.271     0.6247 0.0000e+00
     30.000     8.8522    30.6207    9.78332  102.35859    23.7120 1.5521e+00     30.372     0.6328 0.0000e+00
     31.000     8.8455    30.6216    9.78959  102.42125    23.7134 1.5519e+00     31.159     0.6291 0.0000e+00
     32.000     8.8345    30.6301    9.80703  102.58744    23.7216 1.5524e+00     32.700     0.6263 0.0000e+00
     33.000     8.8363    30.6304    9.79968  102.51360    23.7225 1.5521e+00     33.049     0.6157 0.0000e+00
     34.000     8.8330    30.6338    9.81358  102.65880    23.7258 1.5520e+00     34.217     0.6187 0.0000e+00
     35.000     8.8322    30.6362    9.81284  102.64937    23.7280 1.5520e+00     35.205     0.6130 0.0000e+00
     36.000     8.8293    30.6378    9.80803  102.55188    23.7297 1.5516e+00     36.375     0.5934 0.0000e+00
     37.000     8.7778    30.6394    9.81857  102.66068    23.7314 1.5517e+00     37.596     0.6318 0.0000e+00
     38.000     8.6867    30.6671    9.81642  102.63865    23.7577 1.5516e+00     38.655     0.6365 0.0000e+00
     39.000     8.6517    30.7367    9.81098  102.58390    23.8227 1.5517e+00     39.544     0.6369 0.0000e+00
     40.000     8.6524    30.8238    9.82686  102.74806    23.9055 1.5517e+00     40.699     0.5814 0.0000e+00
     41.000     8.6436    30.8012    9.82676  102.74626    23.8841 1.5515e+00     41.535     0.6175 0.0000e+00
     42.000     8.6443    30.8046    9.82486  102.72765    23.8872 1.5516e+00     42.160     0.6166 0.0000e+00
     43.000     8.6435    30.8090    9.82594  102.73936    23.8914 1.5517e+00     43.057     0.5809 0.0000e+00
     44.000     8.6456    30.8082    9.82597  102.73831    23.8908 1.5513e+00     44.017     0.6027 0.0000e+00
     45.000     8.6419    30.8107    9.81446  102.61657    23.8929 1.5518e+00     44.811     0.5968 0.0000e+00
     46.000     8.6177    30.8095    9.82782  102.76219    23.8919 1.5513e+00     45.445     0.5957 0.0000e+00
     47.000     8.6121    30.8381    9.81914  102.68657    23.9183 1.5512e+00     46.455     0.6024 0.0000e+00
     48.000     8.6148    30.8404    9.81677  102.69888    23.9205 1.5512e+00     47.252     0.6012 0.0000e+00
     47.000     8.6133    30.8391    9.80816  102.64600    23.9193 1.5508e+00     46.694     0.6831 0.0000e+00
     46.000     8.6174    30.8406    9.83371  102.91045    23.9207 1.5510e+00     46.053     0.6729 0.0000e+00
     45.000     8.6299    30.8332    9.81502  102.71686    23.9142 1.5510e+00     44.830     0.6070 0.0000e+00
     44.000     8.6420    30.8269    9.82821  102.86283    23.9084 1.5510e+00     44.350     0.6358 0.0000e+00
     43.000     8.6461    30.8070    9.82235  102.84829    23.8898 1.5505e+00     43.162     0.6004 0.0000e+00
     42.000     8.6491    30.8068    9.83235  103.01121    23.8896 1.5506e+00     42.521     0.6300 0.0000e+00
     41.000     8.6563    30.8012    9.81955  102.98881    23.8845 1.5505e+00     41.325     0.6229 0.0000e+00
     40.000     8.6626    30.7966    9.81936  103.02586    23.8802 1.5503e+00     40.507     0.6793 0.0000e+00
     39.000     8.6678    30.7863    9.82182  103.07970    23.8708 1.5509e+00     39.197     0.6048 0.0000e+00
     38.000     8.6703    30.7843    9.81508  103.05325    23.8688 1.5505e+00     38.496     0.6411 0.0000e+00
     37.000     8.6726    30.7800    9.80830  103.01295    23.8648 1.5500e+00     37.311     0.6697 0.0000e+00
     36.000     8.6849    30.7783    9.80792  103.02433    23.8632 1.5502e+00     36.382     0.6674 0.0000e+00
     35.000     8.7290    30.7641    9.80460  102.99722    23.8502 1.5503e+00     35.328     0.6431 0.0000e+00
     34.000     8.7849    30.7232    9.80175  102.97031    23.8123 1.5496e+00     34.371     0.6880 0.0000e+00
     33.000     8.8256    30.6655    9.79751  102.91936    23.7574 1.5501e+00     33.245     0.6677 0.0000e+00
     32.000     8.8368    30.6378    9.80145  102.95151    23.7307 1.5501e+00     32.223     0.6708 0.0000e+00
     31.000     8.8607    30.6286    9.80007  102.93996    23.7219 1.5497e+00     31.311     0.6874 0.0000e+00
     30.000     8.8769    30.6089    9.77971  102.74191    23.7024 1.5499e+00     30.175     0.7217 0.0000e+00
     29.000     8.8862    30.6001    9.78631  102.87862    23.6934 1.5503e+00     29.081     0.7487 0.0000e+00
     28.000     8.8893    30.5989    9.79375  102.99325    23.6914 1.5496e+00     28.313     0.7668 0.0000e+00
     27.000     8.8903    30.5977    9.79400  103.02480    23.6896 1.5496e+00     27.175     0.7556 0.0000e+00
     26.000     8.8901    30.5983    9.80875  103.24290    23.6900 1.5495e+00     26.279     0.7245 0.0000e+00
     25.000     8.8843    30.5986    9.80456  103.28977    23.6902 1.5497e+00     25.160     0.7220 0.0000e+00
     24.000     8.8829    30.6010    9.80404  103.37965    23.6928 1.5498e+00     24.293     0.7123 0.0000e+00
     23.000     8.8851    30.6032    9.81225  103.52517    23.6951 1.5498e+00     23.129     0.7468 0.0000e+00
     22.000     8.9001    30.6034    9.81804  103.64806    23.6948 1.5502e+00     22.118     0.7254 0.0000e+00
     21.000     8.9277    30.6003    9.81633  103.66483    23.6912 1.5505e+00     21.307     0.6964 0.0000e+00
     20.000     8.9455    30.5820    9.82681  103.81359    23.6724 1.5511e+00     20.284     0.7282 0.0000e+00
     19.000     8.9792    30.5596    9.81978  103.78798    23.6503 1.5523e+00     18.678     0.7234 0.0000e+00
     18.000     9.0012    30.5534    9.82168  103.79093    23.6435 1.5544e+00     18.236     0.7578 0.0000e+00
     17.000     9.0761    30.5233    9.82439  103.81345    23.6128 1.5576e+00     16.748     0.8456 0.0000e+00
     16.000     9.1045    30.5148    9.82997  103.86135    23.6021 1.5641e+00     16.213     0.7875 0.0000e+00
     15.000     9.1262    30.4763    9.82950  103.84034    23.5624 1.5746e+00     15.098     0.8141 0.0000e+00
     14.000     9.1471    30.4734    9.82774  103.80831    23.5571 1.5931e+00     14.081     0.8615 0.0000e+00
     13.000     9.1672    30.4662    9.84674  103.98389    23.5484 1.6206e+00     13.158     0.8625 0.0000e+00
     12.000     9.1880    30.4600    9.85974  104.10563    23.5403 1.6682e+00     12.047     0.9130 0.0000e+00
     11.000     9.1994    30.4447    9.89883  104.50124    23.5254 1.7554e+00     11.097     0.8658 0.0000e+00
     10.000     9.2021    30.4277    9.87639  104.24647    23.5095 1.8908e+00     10.024     0.8586 0.0000e+00
      9.000     9.2005    30.4268    9.97968  105.32544    23.5089 2.1180e+00      9.182     0.8403 0.0000e+00
      8.000     9.1965    30.4232    9.91761  103.98237    23.5061 2.5407e+00      8.204     0.8089 0.0000e+00
      7.000     9.1908    30.4168   11.33981  102.98299    23.5017 3.2680e+00      7.081     0.8059 0.0000e+00
      6.000     9.1882    30.4134   11.34069  102.84107    23.4997 4.3509e+00      6.296     0.7694 0.0000e+00
      5.000     9.1761    30.4094   11.76832  102.88993    23.4976 6.3177e+00      4.968     0.7583 0.0000e+00
      4.000     9.1724    30.4016   11.53569  102.78300    23.4925 9.8362e+00      4.252     0.7274 0.0000e+00
      3.000     9.1639    30.3997   11.57565  102.49442    23.4920 1.5757e+01      3.310     0.6920 0.0000e+00
      2.000     9.1599    30.3927   11.62337  102.34295    23.4874 2.3600e+01      2.536     0.6760 0.0000e+00
      1.000     9.1562    30.3913 -9.990e-29 -9.990e-29    23.4875 4.5725e+01      1.775     0.6809 0.0000e+00
