* Sea-Bird SBE19plus Data File:
* FileName = C:\data\otf\2007\ctd-07154.hex
* Software Version 1.55
* Temperature SN =  5061
* Conductivity SN =  5061
* System UpLoad Time = Aug 15 2007 17:46:20
* ds
* SeacatPlus V 1.6a  SERIAL NO. 5061    15 Aug 2007  15:31:53
* vbatt = 10.9, vlith =  8.7, ioper =  61.6 ma, ipump =  57.5 ma, 
* iext01 =  95.2 ma
* iext23 =  58.1 ma
* 
* status = not logging
* number of scans to average = 1
* samples = 153039, free = 288466, casts = 154
* mode = profile, minimum cond freq = 3000, pump delay = 60 sec
* autorun = no, ignore magnetic switch = no
* battery type = alkaline, battery cutoff =  7.3 volts
* pressure sensor = strain gauge, range = 870.0
* SBE 38 = no, Gas Tension Device = no
* Ext Volt 0 = yes, Ext Volt 1 = yes, Ext Volt 2 = yes, Ext Volt 3 = yes
* echo commands = yes
* output format = raw HEX
* S>
* 
* SeacatPlus V 1.6a  SERIAL NO. 5061    15 Aug 2007  15:32:18
* temperature:  05-oct-06
*     TA0 = 1.254184e-03
*     TA1 = 2.596730e-04
*     TA2 = 5.165612e-07
*     TA3 = 1.318931e-07
*     TOFFSET = 0.000000e+00
* conductivity:  05-oct-06
*     G = -9.978144e-01
*     H = 1.555200e-01
*     I = -4.839108e-04
*     J = 6.121100e-05
*     CF0 = 2.539936e+03
*     CPCOR = -9.570000e-08
*     CTCOR = 3.250000e-06
*     CSLOPE = 1.000000e+00
* pressure S/N = 2362539, range = 870 psia:  24-aug-06
*     PA0 = 2.171091e-01
*     PA1 = 2.647085e-03
*     PA2 = 1.419397e-11
*     PTCA0 = 5.242437e+05
*     PTCA1 = 7.545345e+00
*     PTCA2 = -1.835354e-01
*     PTCB0 = 2.537125e+01
*     PTCB1 = -1.750000e-03
*     PTCB2 = 0.000000e+00
*     PTEMPA0 = -5.753989e+01
*     PTEMPA1 = 5.235813e+01
*     PTEMPA2 = -4.015521e-02
*     POFFSET = 0.000000e+00
* volt 0: offset = -4.682842e-02, slope = 1.249147e+00
* volt 1: offset = -4.695158e-02, slope = 1.248145e+00
* volt 2: offset = -4.685263e-02, slope = 1.248783e+00
* volt 3: offset = -4.690316e-02, slope = 1.249508e+00
*     EXTFREQSF = 1.000002e+00
* dh
* cast 154 01 Aug 2007 11:31:05 samples 151626 to 153039, avg = 1, stop = mag switch
* S> 
# nquan = 10
# nvalues = 149                         
# units = specified
# name 0 = depSM: Depth [salt water, m]
# name 1 = tv290C: Temperature [ITS-90, deg C]
# name 2 = sal00: Salinity [PSU]
# name 3 = sbeox0Mg/L: Oxygen, SBE 43 [mg/l]
# name 4 = sbeox0PS: Oxygen, SBE 43 [% saturation]
# name 5 = sigma-t00: Density [sigma-t, Kg/m^3 ]
# name 6 = par: PAR/Irradiance, Biospherical/Licor
# name 7 = prdM: Pressure, Strain Gauge [db]
# name 8 = flECO-AFL: Fluorescence, Wetlab ECO-AFL/FL [mg/m^3]
# name 9 = flag: flag
# span 0 =      1.000,     77.000       
# span 1 =     9.0859,    10.1323       
# span 2 =    30.1022,    31.4578       
# span 3 =    7.08616,    9.37740       
# span 4 =   76.30554,   99.49990       
# span 5 =    23.1157,    24.3325       
# span 6 = 1.5465e+00, 1.6483e+02       
# span 7 =      1.085,     77.658       
# span 8 =     0.8725,     1.8528       
# span 9 = 0.0000e+00, 0.0000e+00       
# interval = meters: 1                  
# start_time = Aug 01 2007 11:31:05
# bad_flag = -9.990e-29
# sensor 0 = Frequency 0  temperature, 5061, 05-Oct-06
# sensor 1 = Frequency 1  conductivity, 5061, 05-Oct-06, cpcor = -9.5700e-08
# sensor 2 = Pressure Number
# sensor 3 = Extrnl Volt  0  irradiance (PAR), primary, 4751, 08/10/06
# sensor 4 = Extrnl Volt  1  Oxygen, SBE, primary, 1081, 10/24/06
# sensor 5 = Extrnl Volt  2  WET Labs, ECO_AFL
# sensor 6 = Extrnl Volt  3  userpoly 0, 0627, 10/11/06
# datcnv_date = Oct 15 2007 14:49:54, 5.37e
# datcnv_in = I:\bob d\OTF_GEM\2007\ctd-07154.hex I:\Willette\OTF\CTD\5061.con
# datcnv_skipover = 0
# filter_date = Oct 15 2007 15:02:45, 5.37e
# filter_in = I:\Willette\OTF\CTD\2007\CTD Data\ctd-07154.cnv
# filter_low_pass_tc_A = 1.000
# filter_low_pass_tc_B = 0.150
# filter_low_pass_A_vars = prdM
# filter_low_pass_B_vars =
# loopedit_date = Oct 15 2007 15:07:02, 5.37e
# loopedit_in = I:\Willette\OTF\CTD\2007\CTD Data\ctd-07154.cnv
# loopedit_minVelocity = 0.250                                                                                            
# loopedit_surfaceSoak: minDepth = 5.0, maxDepth = 20, useDeckPress = 1                                                   
# loopedit_excl_bad_scans = yes
# alignctd_date = Oct 15 2007 15:14:26, 5.37e
# alignctd_in = I:\Willette\OTF\CTD\2007\CTD Data\ctd-07154.cnv
# alignctd_adv = tv290C 0.500, sbeox0Mg/L 4.000, sbeox0PS 4.000                                                                                                                                                                      
# binavg_date = Oct 15 2007 15:18:54, 5.37e
# binavg_in = I:\Willette\OTF\CTD\2007\CTD Data\ctd-07154.cnv
# binavg_bintype = meters
# binavg_binsize = 1
# binavg_excl_bad_scans = yes
# binavg_skipover = 0
# binavg_surface_bin = no, min = 0.000, max = 0.000, value = 0.000
# file_type = ascii
*END*
      5.000    10.1323    30.1771    7.15600   77.08323    23.1700 3.5493e+01      5.058     1.2290 0.0000e+00
      6.000    10.1263    30.1621    7.08616   76.30554    23.1563 2.5572e+01      6.057     1.2408 0.0000e+00
      7.000    10.1197    30.1655    7.13398   76.71906    23.1591 1.8100e+01      7.130     1.3214 0.0000e+00
      8.000    10.0383    30.1987    7.23822   77.74735    23.1958 1.3233e+01      8.129     1.3522 0.0000e+00
      9.000    10.0450    30.2300    7.50630   80.59584    23.2226 9.9086e+00      9.122     0.9803 0.0000e+00
     10.000     9.9766    30.2500    7.75737   83.28851    23.2451 7.3488e+00     10.171     0.9972 0.0000e+00
     11.000     9.9484    30.2964    7.77696   83.51189    23.2891 5.6454e+00     11.093     0.9884 0.0000e+00
     12.000     9.9399    30.3207    7.92895   85.16748    23.3101 4.5720e+00     12.091     0.9800 0.0000e+00
     13.000     9.9388    30.3313    8.11830   87.20721    23.3189 3.7303e+00     13.217     0.9678 0.0000e+00
     14.000     9.9494    30.3373    8.03214   86.27487    23.3228 3.1188e+00     14.178     0.9282 0.0000e+00
     15.000     9.9564    30.3344    8.13729   87.37185    23.3187 2.7017e+00     15.023     0.8975 0.0000e+00
     16.000     9.9578    30.3423    8.45417   90.77516    23.3244 2.3758e+00     16.172     0.8933 0.0000e+00
     17.000     9.9477    30.3407    8.60575   92.39771    23.3233 2.1586e+00     17.153     0.8725 0.0000e+00
     18.000     9.9244    30.3758    8.68561   93.23323    23.3553 1.9936e+00     18.095     0.8878 0.0000e+00
     19.000     9.9270    30.3732    8.76197   93.97740    23.3533 1.8798e+00     19.126     0.8949 0.0000e+00
     20.000     9.9061    30.3949    8.83403   94.70522    23.3724 1.7879e+00     20.305     0.9222 0.0000e+00
     21.000     9.8509    30.4466    8.85579   94.92732    23.4183 1.7317e+00     21.147     0.9071 0.0000e+00
     22.000     9.8243    30.4994    8.88963   95.28254    23.4678 1.6834e+00     22.189     0.9130 0.0000e+00
     23.000     9.8143    30.5097    8.91442   95.54294    23.4773 1.6490e+00     23.092     0.9410 0.0000e+00
     24.000     9.8020    30.5253    8.95856   95.97820    23.4916 1.6217e+00     24.218     0.9373 0.0000e+00
     25.000     9.7766    30.5567    9.00205   96.37086    23.5196 1.6028e+00     25.364     0.9642 0.0000e+00
     26.000     9.7415    30.6063    9.02109   96.51755    23.5632 1.5902e+00     26.235     0.9640 0.0000e+00
     27.000     9.7202    30.6419    9.03902   96.62013    23.5953 1.5800e+00     27.348     0.9965 0.0000e+00
     28.000     9.6803    30.6858    9.05589   96.74460    23.6339 1.5724e+00     28.247     1.0315 0.0000e+00
     29.000     9.6256    30.7566    9.07167   96.86413    23.6976 1.5666e+00     29.354     1.0458 0.0000e+00
     30.000     9.5840    30.8088    9.08753   96.96737    23.7452 1.5630e+00     30.272     1.0862 0.0000e+00
     31.000     9.5530    30.8523    9.10515   97.10148    23.7851 1.5600e+00     31.268     1.1107 0.0000e+00
     32.000     9.5075    30.8963    9.12002   97.22888    23.8250 1.5578e+00     32.332     1.1603 0.0000e+00
     33.000     9.4663    30.9485    9.13431   97.33966    23.8731 1.5560e+00     33.329     1.1738 0.0000e+00
     34.000     9.4420    30.9828    9.14377   97.41442    23.9049 1.5544e+00     34.237     1.2047 0.0000e+00
     35.000     9.4108    31.0146    9.15911   97.51538    23.9339 1.5535e+00     35.377     1.2142 0.0000e+00
     36.000     9.3884    31.0452    9.16672   97.55621    23.9621 1.5523e+00     36.400     1.3600 0.0000e+00
     37.000     9.3610    31.0691    9.18053   97.61809    23.9837 1.5522e+00     37.266     1.3835 0.0000e+00
     38.000     9.3243    31.1151    9.20136   97.82261    24.0262 1.5513e+00     38.365     1.4090 0.0000e+00
     39.000     9.2626    31.1674    9.21185   97.93075    24.0730 1.5511e+00     39.474     1.4318 0.0000e+00
     40.000     9.2416    31.2210    9.21760   97.98757    24.1235 1.5508e+00     40.255     1.4778 0.0000e+00
     41.000     9.2449    31.2148    9.22599   98.03682    24.1180 1.5501e+00     41.376     1.4326 0.0000e+00
     42.000     9.2324    31.2222    9.24194   98.19996    24.1242 1.5500e+00     42.389     1.4710 0.0000e+00
     43.000     9.2097    31.2590    9.24639   98.24448    24.1575 1.5496e+00     43.370     1.4818 0.0000e+00
     44.000     9.2039    31.2677    9.25284   98.29584    24.1656 1.5495e+00     44.442     1.4569 0.0000e+00
     45.000     9.1987    31.2737    9.26146   98.39403    24.1706 1.5492e+00     45.407     1.4989 0.0000e+00
     46.000     9.1906    31.2905    9.26557   98.45176    24.1858 1.5491e+00     46.483     1.5165 0.0000e+00
     47.000     9.1982    31.2794    9.26557   98.45152    24.1760 1.5491e+00     47.427     1.5037 0.0000e+00
     48.000     9.2091    31.2605    9.26816   98.46091    24.1593 1.5490e+00     48.481     1.4708 0.0000e+00
     49.000     9.2023    31.2687    9.27102   98.47725    24.1663 1.5488e+00     49.456     1.5013 0.0000e+00
     50.000     9.1832    31.2966    9.28240   98.60189    24.1908 1.5488e+00     50.552     1.4985 0.0000e+00
     51.000     9.1800    31.3039    9.29135   98.68576    24.1976 1.5484e+00     51.462     1.5161 0.0000e+00
     52.000     9.1836    31.2990    9.29461   98.70868    24.1933 1.5487e+00     52.588     1.5081 0.0000e+00
     53.000     9.1753    31.3071    9.30191   98.78168    24.2002 1.5482e+00     53.514     1.5184 0.0000e+00
     54.000     9.1689    31.3183    9.30417   98.79733    24.2103 1.5484e+00     54.491     1.5509 0.0000e+00
     55.000     9.1624    31.3284    9.30342   98.76694    24.2193 1.5480e+00     55.588     1.5231 0.0000e+00
     56.000     9.1593    31.3323    9.31065   98.82515    24.2226 1.5480e+00     56.524     1.5789 0.0000e+00
     57.000     9.1456    31.3513    9.32221   98.93902    24.2391 1.5480e+00     57.583     1.5497 0.0000e+00
     58.000     9.1296    31.3783    9.33006   99.02184    24.2627 1.5479e+00     58.557     1.5473 0.0000e+00
     59.000     9.1160    31.4015    9.33552   99.07015    24.2832 1.5481e+00     59.615     1.5859 0.0000e+00
     60.000     9.1145    31.4070    9.34342   99.15153    24.2884 1.5480e+00     60.597     1.6455 0.0000e+00
     61.000     9.1119    31.4093    9.34615   99.17802    24.2902 1.5479e+00     61.531     1.6050 0.0000e+00
     62.000     9.1037    31.4244    9.34329   99.14550    24.3032 1.5481e+00     62.630     1.6375 0.0000e+00
     63.000     9.1023    31.4281    9.34785   99.19559    24.3066 1.5478e+00     63.584     1.6303 0.0000e+00
     64.000     9.0999    31.4323    9.35135   99.22940    24.3103 1.5477e+00     64.600     1.6201 0.0000e+00
     65.000     9.0994    31.4337    9.34610   99.17532    24.3116 1.5478e+00     65.581     1.6167 0.0000e+00
     66.000     9.0991    31.4332    9.35010   99.22212    24.3111 1.5477e+00     66.608     1.6305 0.0000e+00
     67.000     9.0980    31.4367    9.35529   99.27473    24.3142 1.5477e+00     67.651     1.6448 0.0000e+00
     68.000     9.1026    31.4287    9.35630   99.28304    24.3073 1.5476e+00     68.645     1.6202 0.0000e+00
     69.000     9.1005    31.4313    9.35592   99.27571    24.3093 1.5475e+00     69.626     1.6249 0.0000e+00
     70.000     9.0990    31.4337    9.36098   99.32213    24.3115 1.5477e+00     70.624     1.6114 0.0000e+00
     71.000     9.0946    31.4409    9.36334   99.34434    24.3177 1.5475e+00     71.612     1.6219 0.0000e+00
     72.000     9.0859    31.4571    9.37025   99.41722    24.3317 1.5476e+00     72.790     1.6118 0.0000e+00
     73.000     9.0859    31.4576    9.37631   99.48454    24.3323 1.5474e+00     73.724     1.6627 0.0000e+00
     74.000     9.0861    31.4578    9.37740   99.49990    24.3325 1.5474e+00     74.676     1.6464 0.0000e+00
     75.000     9.0886    31.4540    9.37467   99.46695    24.3292 1.5475e+00     75.751     1.6576 0.0000e+00
     76.000     9.0913    31.4488    9.36832   99.39688    24.3247 1.5470e+00     76.637     1.6478 0.0000e+00
     77.000     9.0880    31.4551    9.37340   99.46007    24.3300 1.5476e+00     77.658     1.7070 0.0000e+00
     76.000     9.0952    31.4440    9.36695   99.40304    24.3204 1.5468e+00     76.574     1.7606 0.0000e+00
     75.000     9.0992    31.4375    9.36172   99.34343    24.3148 1.5470e+00     75.684     1.7150 0.0000e+00
     74.000     9.1014    31.4314    9.36067   99.33514    24.3095 1.5471e+00     74.736     1.7561 0.0000e+00
     73.000     9.1001    31.4332    9.35724   99.30009    24.3110 1.5471e+00     73.682     1.6896 0.0000e+00
     72.000     9.1026    31.4298    9.35520   99.27833    24.3081 1.5471e+00     72.706     1.6887 0.0000e+00
     71.000     9.1038    31.4272    9.35537   99.27476    24.3058 1.5469e+00     71.659     1.6902 0.0000e+00
     70.000     9.1054    31.4229    9.36027   99.32426    24.3021 1.5467e+00     70.702     1.7274 0.0000e+00
     69.000     9.0997    31.4330    9.35877   99.30919    24.3108 1.5468e+00     69.667     1.7360 0.0000e+00
     68.000     9.0979    31.4365    9.35655   99.28919    24.3139 1.5468e+00     68.640     1.7431 0.0000e+00
     67.000     9.0985    31.4351    9.36234   99.35996    24.3128 1.5470e+00     67.671     1.7051 0.0000e+00
     66.000     9.1011    31.4318    9.35235   99.25809    24.3101 1.5468e+00     66.626     1.6844 0.0000e+00
     65.000     9.1098    31.4164    9.35274   99.25090    24.2968 1.5471e+00     65.639     1.7138 0.0000e+00
     64.000     9.1137    31.4062    9.35345   99.24841    24.2877 1.5469e+00     64.634     1.7382 0.0000e+00
     63.000     9.1029    31.4255    9.35654   99.28303    24.3042 1.5471e+00     63.582     1.7010 0.0000e+00
     62.000     9.0952    31.4389    9.36012   99.32199    24.3159 1.5468e+00     62.650     1.7302 0.0000e+00
     61.000     9.0967    31.4385    9.36473   99.37381    24.3160 1.5472e+00     61.543     1.7314 0.0000e+00
     60.000     9.0983    31.4345    9.35841   99.30645    24.3124 1.5472e+00     60.604     1.7051 0.0000e+00
     59.000     9.1012    31.4296    9.35857   99.30766    24.3082 1.5471e+00     59.559     1.7145 0.0000e+00
     58.000     9.0993    31.4311    9.36166   99.34060    24.3093 1.5467e+00     58.593     1.7323 0.0000e+00
     57.000     9.1005    31.4302    9.36312   99.35647    24.3088 1.5470e+00     57.559     1.7353 0.0000e+00
     56.000     9.0999    31.4306    9.36508   99.38882    24.3090 1.5467e+00     56.538     1.7236 0.0000e+00
     55.000     9.1068    31.4200    9.36290   99.38191    24.3001 1.5467e+00     55.549     1.7220 0.0000e+00
     54.000     9.1203    31.3959    9.35530   99.31357    24.2791 1.5466e+00     54.492     1.7569 0.0000e+00
     53.000     9.1331    31.3742    9.35241   99.27837    24.2600 1.5467e+00     53.506     1.7009 0.0000e+00
     52.000     9.1318    31.3754    9.34943   99.28275    24.2609 1.5466e+00     52.514     1.7263 0.0000e+00
     51.000     9.1499    31.3521    9.33784   99.16492    24.2411 1.5467e+00     51.491     1.7149 0.0000e+00
     50.000     9.1672    31.3176    9.33398   99.12218    24.2102 1.5465e+00     50.477     1.6947 0.0000e+00
     49.000     9.1661    31.3196    9.33287   99.05619    24.2118 1.5470e+00     49.474     1.7035 0.0000e+00
     48.000     9.1247    31.3843    9.34346   99.18534    24.2681 1.5466e+00     48.500     1.7591 0.0000e+00
     47.000     9.1278    31.3792    9.34448   99.18885    24.2640 1.5468e+00     47.414     1.7592 0.0000e+00
     46.000     9.1258    31.3836    9.34235   99.16331    24.2683 1.5466e+00     46.447     1.8027 0.0000e+00
     45.000     9.1288    31.3797    9.34654   99.20716    24.2650 1.5467e+00     45.460     1.8495 0.0000e+00
     44.000     9.1283    31.3811    9.34981   99.25544    24.2662 1.5470e+00     44.410     1.8528 0.0000e+00
     43.000     9.1437    31.3609    9.34072   99.21403    24.2487 1.5471e+00     43.407     1.7386 0.0000e+00
     42.000     9.1770    31.3105    9.32787   99.11657    24.2041 1.5472e+00     42.412     1.7359 0.0000e+00
     41.000     9.2099    31.2603    9.31270   98.98778    24.1595 1.5474e+00     41.365     1.6434 0.0000e+00
     40.000     9.2301    31.2342    9.30334   98.88485    24.1361 1.5479e+00     40.411     1.5928 0.0000e+00
     39.000     9.2313    31.2282    9.29905   98.89956    24.1301 1.5479e+00     39.325     1.5799 0.0000e+00
     38.000     9.2519    31.2146    9.29180   98.92622    24.1186 1.5485e+00     38.374     1.4661 0.0000e+00
     37.000     9.3312    31.1181    9.27421   98.81382    24.0305 1.5492e+00     37.339     1.4561 0.0000e+00
     36.000     9.3800    31.0612    9.25763   98.66329    23.9782 1.5502e+00     36.369     1.4014 0.0000e+00
     35.000     9.4099    31.0232    9.25130   98.60214    23.9429 1.5512e+00     35.275     1.4524 0.0000e+00
     34.000     9.4110    31.0210    9.24555   98.55979    23.9408 1.5524e+00     34.331     1.4417 0.0000e+00
     33.000     9.4201    31.0122    9.23848   98.51830    23.9327 1.5541e+00     33.311     1.4109 0.0000e+00
     32.000     9.4365    30.9948    9.22442   98.52166    23.9167 1.5561e+00     32.294     1.3563 0.0000e+00
     31.000     9.5167    30.9179    9.21701   98.51549    23.8469 1.5591e+00     31.308     1.3006 0.0000e+00
     30.000     9.5878    30.8270    9.20285   98.42157    23.7630 1.5627e+00     30.270     1.2362 0.0000e+00
     29.000     9.6245    30.7805    9.19322   98.35642    23.7206 1.5677e+00     29.271     1.1795 0.0000e+00
     28.000     9.6649    30.7236    9.18439   98.28063    23.6696 1.5740e+00     28.218     1.1666 0.0000e+00
     27.000     9.6773    30.7039    9.17496   98.20284    23.6517 1.5839e+00     27.285     1.1406 0.0000e+00
     26.000     9.6932    30.6803    9.16745   98.15960    23.6309 1.5952e+00     26.199     1.1373 0.0000e+00
     25.000     9.7179    30.6460    9.15954   98.12032    23.6005 1.6139e+00     25.255     1.0816 0.0000e+00
     24.000     9.7474    30.6069    9.15049   98.07691    23.5657 1.6353e+00     24.241     1.0705 0.0000e+00
     23.000     9.7839    30.5634    9.14666   98.06798    23.5258 1.6675e+00     23.209     1.0134 0.0000e+00
     22.000     9.8174    30.5176    9.13777   97.98171    23.4844 1.7111e+00     22.227     0.9979 0.0000e+00
     21.000     9.8316    30.4951    9.13740   97.98255    23.4640 1.7685e+00     21.182     0.9919 0.0000e+00
     20.000     9.8370    30.4860    9.12864   97.89378    23.4559 1.8457e+00     20.197     0.9919 0.0000e+00
     19.000     9.8403    30.4807    9.12333   97.85288    23.4513 1.9466e+00     19.150     1.0060 0.0000e+00
     18.000     9.8476    30.4719    9.12315   97.86962    23.4434 2.0825e+00     18.180     1.0018 0.0000e+00
     17.000     9.8609    30.4565    9.12330   97.90777    23.4294 2.2666e+00     17.146     0.9970 0.0000e+00
     16.000     9.8813    30.4343    9.11800   97.87013    23.4091 2.5003e+00     16.125     0.9509 0.0000e+00
     15.000     9.8912    30.4198    9.11580   97.86685    23.3955 2.8082e+00     15.169     0.9657 0.0000e+00
     14.000     9.9305    30.3451    9.11602   97.85958    23.3320 3.2649e+00     14.112     0.9596 0.0000e+00
     13.000     9.9332    30.3346    9.09892   97.68237    23.3225 3.8306e+00     13.176     0.9981 0.0000e+00
     12.000     9.9376    30.3100    9.10043   97.70980    23.3025 4.7037e+00     12.103     1.0188 0.0000e+00
     11.000     9.9443    30.3081    9.10418   97.74474    23.3003 5.8653e+00     11.085     1.0077 0.0000e+00
     10.000     9.9475    30.3023    9.10181   97.72076    23.2948 7.4316e+00     10.110     1.0106 0.0000e+00
      9.000     9.9457    30.2981    9.09995   97.72053    23.2919 9.7854e+00      9.077     0.9404 0.0000e+00
      8.000     9.9476    30.2971    9.10519   97.78846    23.2910 1.2805e+01      8.100     0.9708 0.0000e+00
      7.000     9.9606    30.2883    9.10213   97.76261    23.2823 1.7668e+01      7.045     0.9699 0.0000e+00
      6.000     9.9660    30.2828    9.10018   97.75146    23.2768 2.3162e+01      6.084     0.9527 0.0000e+00
      5.000     9.9678    30.2895    9.10189   97.81200    23.2818 3.1338e+01      4.999     0.9240 0.0000e+00
      4.000     9.9838    30.2602    9.08874   97.72625    23.2571 4.2295e+01      4.083     1.0191 0.0000e+00
      3.000    10.0185    30.2178    9.08609   97.74977    23.2192 5.9053e+01      2.995     1.0432 0.0000e+00
      2.000    10.0674    30.1535    9.06953   97.59564    23.1621 7.6701e+01      2.041     1.0667 0.0000e+00
      1.000    10.0971    30.1022    9.29153   96.27933    23.1157 1.6483e+02      1.085     1.1443 0.0000e+00
