* Sea-Bird SBE19plus Data File:
* FileName = C:\data\otf\2007\ctd-07032.hex
* Software Version 1.55
* Temperature SN =  5061
* Conductivity SN =  5061
* System UpLoad Time = Aug 15 2007 16:02:10
* ds
* SeacatPlus V 1.6a  SERIAL NO. 5061    15 Aug 2007  15:31:53
* vbatt = 10.9, vlith =  8.7, ioper =  61.6 ma, ipump =  57.5 ma, 
* iext01 =  95.2 ma
* iext23 =  58.1 ma
* 
* status = not logging
* number of scans to average = 1
* samples = 153039, free = 288466, casts = 154
* mode = profile, minimum cond freq = 3000, pump delay = 60 sec
* autorun = no, ignore magnetic switch = no
* battery type = alkaline, battery cutoff =  7.3 volts
* pressure sensor = strain gauge, range = 870.0
* SBE 38 = no, Gas Tension Device = no
* Ext Volt 0 = yes, Ext Volt 1 = yes, Ext Volt 2 = yes, Ext Volt 3 = yes
* echo commands = yes
* output format = raw HEX
* S>
* 
* SeacatPlus V 1.6a  SERIAL NO. 5061    15 Aug 2007  15:32:18
* temperature:  05-oct-06
*     TA0 = 1.254184e-03
*     TA1 = 2.596730e-04
*     TA2 = 5.165612e-07
*     TA3 = 1.318931e-07
*     TOFFSET = 0.000000e+00
* conductivity:  05-oct-06
*     G = -9.978144e-01
*     H = 1.555200e-01
*     I = -4.839108e-04
*     J = 6.121100e-05
*     CF0 = 2.539936e+03
*     CPCOR = -9.570000e-08
*     CTCOR = 3.250000e-06
*     CSLOPE = 1.000000e+00
* pressure S/N = 2362539, range = 870 psia:  24-aug-06
*     PA0 = 2.171091e-01
*     PA1 = 2.647085e-03
*     PA2 = 1.419397e-11
*     PTCA0 = 5.242437e+05
*     PTCA1 = 7.545345e+00
*     PTCA2 = -1.835354e-01
*     PTCB0 = 2.537125e+01
*     PTCB1 = -1.750000e-03
*     PTCB2 = 0.000000e+00
*     PTEMPA0 = -5.753989e+01
*     PTEMPA1 = 5.235813e+01
*     PTEMPA2 = -4.015521e-02
*     POFFSET = 0.000000e+00
* volt 0: offset = -4.682842e-02, slope = 1.249147e+00
* volt 1: offset = -4.695158e-02, slope = 1.248145e+00
* volt 2: offset = -4.685263e-02, slope = 1.248783e+00
* volt 3: offset = -4.690316e-02, slope = 1.249508e+00
*     EXTFREQSF = 1.000002e+00
* dh
* cast  32 07 Jul 2007 13:09:26 samples 34404 to 38103, avg = 4, stop = mag switch
* S> 
# nquan = 10
# nvalues = 161                         
# units = specified
# name 0 = depSM: Depth [salt water, m]
# name 1 = tv290C: Temperature [ITS-90, deg C]
# name 2 = sal00: Salinity [PSU]
# name 3 = sbeox0Mg/L: Oxygen, SBE 43 [mg/l]
# name 4 = sbeox0PS: Oxygen, SBE 43 [% saturation]
# name 5 = sigma-t00: Density [sigma-t, Kg/m^3 ]
# name 6 = par: PAR/Irradiance, Biospherical/Licor
# name 7 = prdM: Pressure, Strain Gauge [db]
# name 8 = flECO-AFL: Fluorescence, Wetlab ECO-AFL/FL [mg/m^3]
# name 9 = flag: flag
# span 0 =      1.000,     82.000       
# span 1 =     7.9857,     9.3700       
# span 2 =    30.3444,    31.4319       
# span 3 =    8.65932,   11.66793       
# span 4 =   90.61972,  106.19298       
# span 5 =    23.4272,    24.4748       
# span 6 = 1.5451e+00, 2.6207e+03       
# span 7 =      1.812,     81.668       
# span 8 =     0.3082,     0.9424       
# span 9 = 0.0000e+00, 0.0000e+00       
# interval = meters: 1                  
# start_time = Jul 07 2007 13:09:26
# bad_flag = -9.990e-29
# sensor 0 = Frequency 0  temperature, 5061, 05-Oct-06
# sensor 1 = Frequency 1  conductivity, 5061, 05-Oct-06, cpcor = -9.5700e-08
# sensor 2 = Pressure Number
# sensor 3 = Extrnl Volt  0  irradiance (PAR), primary, 4751, 08/10/06
# sensor 4 = Extrnl Volt  1  Oxygen, SBE, primary, 1081, 10/24/06
# sensor 5 = Extrnl Volt  2  WET Labs, ECO_AFL
# sensor 6 = Extrnl Volt  3  userpoly 0, 0627, 10/11/06
# datcnv_date = Oct 15 2007 14:49:44, 5.37e
# datcnv_in = I:\bob d\OTF_GEM\2007\ctd-07032.hex I:\Willette\OTF\CTD\5061.con
# datcnv_skipover = 0
# filter_date = Oct 15 2007 15:02:22, 5.37e
# filter_in = I:\Willette\OTF\CTD\2007\CTD Data\ctd-07032.cnv
# filter_low_pass_tc_A = 1.000
# filter_low_pass_tc_B = 0.150
# filter_low_pass_A_vars = prdM
# filter_low_pass_B_vars =
# loopedit_date = Oct 15 2007 15:06:45, 5.37e
# loopedit_in = I:\Willette\OTF\CTD\2007\CTD Data\ctd-07032.cnv
# loopedit_minVelocity = 0.250                                                                                            
# loopedit_surfaceSoak: minDepth = 5.0, maxDepth = 20, useDeckPress = 1                                                   
# loopedit_excl_bad_scans = yes
# alignctd_date = Oct 15 2007 15:14:14, 5.37e
# alignctd_in = I:\Willette\OTF\CTD\2007\CTD Data\ctd-07032.cnv
# alignctd_adv = tv290C 0.500, sbeox0Mg/L 4.000, sbeox0PS 4.000                                                                                                                                                                      
# binavg_date = Oct 15 2007 15:18:42, 5.37e
# binavg_in = I:\Willette\OTF\CTD\2007\CTD Data\ctd-07032.cnv
# binavg_bintype = meters
# binavg_binsize = 1
# binavg_excl_bad_scans = yes
# binavg_skipover = 0
# binavg_surface_bin = no, min = 0.000, max = 0.000, value = 0.000
# file_type = ascii
*END*
      3.000     8.9906    30.4592    8.65932   90.61972    23.5547 7.1708e+02      4.098     0.3157 0.0000e+00
      4.000     8.9771    30.4731    8.93813   93.47487    23.5722 5.2139e+02      4.877     0.3560 0.0000e+00
      5.000     8.9702    30.4727    9.15755   95.74053    23.5766 3.7184e+02      5.602     0.4041 0.0000e+00
      6.000     8.9516    30.4792    9.31533   97.37475    23.5840 2.5560e+02      6.377     0.4450 0.0000e+00
      7.000     8.9138    30.4692    9.39972   98.24608    23.5771 1.7977e+02      7.139     0.5121 0.0000e+00
      8.000     8.8868    30.4891    9.49054   99.18787    23.5956 1.2681e+02      7.898     0.5900 0.0000e+00
      9.000     8.8773    30.5398    9.53976   99.68995    23.6420 8.9172e+01      8.764     0.6455 0.0000e+00
     10.000     8.8596    30.5920    9.59493  100.22894    23.6870 6.3255e+01      9.919     0.6018 0.0000e+00
     11.000     8.8294    30.6103    9.62686  100.50208    23.7036 4.6206e+01     11.125     0.5557 0.0000e+00
     12.000     8.7913    30.6270    9.66612  100.86526    23.7208 3.3592e+01     12.338     0.5383 0.0000e+00
     13.000     8.7662    30.6465    9.68832  101.05453    23.7405 2.5003e+01     13.385     0.4931 0.0000e+00
     14.000     8.6573    30.7040    9.70557  101.17844    23.7885 1.8386e+01     14.569     0.4898 0.0000e+00
     15.000     8.6319    30.6729    9.70850  101.19153    23.7706 1.4372e+01     15.335     0.4877 0.0000e+00
     16.000     8.6248    30.7403    9.72769  101.37496    23.8352 1.0943e+01     16.282     0.4699 0.0000e+00
     17.000     8.6161    30.7622    9.73821  101.45922    23.8562 8.4302e+00     17.258     0.4576 0.0000e+00
     18.000     8.6098    30.7780    9.76379  101.70428    23.8709 6.4436e+00     18.343     0.4788 0.0000e+00
     19.000     8.5986    30.7847    9.77657  101.79896    23.8773 5.2369e+00     19.659     0.4789 0.0000e+00
     20.000     8.5725    30.7912    9.77689  101.74832    23.8833 4.3389e+00     20.654     0.4685 0.0000e+00
     21.000     8.5487    30.8001    9.81615  102.04381    23.8915 3.6523e+00     21.663     0.4454 0.0000e+00
     22.000     8.5360    30.8248    9.81783  101.97962    23.9142 3.1505e+00     22.478     0.4594 0.0000e+00
     23.000     8.5184    30.8480    9.82216  101.96843    23.9359 2.7522e+00     23.453     0.4566 0.0000e+00
     24.000     8.5031    30.8618    9.83515  102.06302    23.9485 2.4847e+00     24.257     0.4641 0.0000e+00
     25.000 -9.990e-29 -9.990e-29 -9.990e-29 -9.990e-29 -9.990e-29 -9.990e-29 -9.990e-29 -9.990e-29 -9.990e-29
     26.000     8.4784    30.8875    9.83144  101.98483    23.9720 2.1399e+00     25.572     0.4691 0.0000e+00
     27.000     8.4487    30.9117    9.85072  102.17547    23.9943 1.9513e+00     26.756     0.4962 0.0000e+00
     28.000     8.4397    30.9319    9.83124  101.94022    24.0127 1.8564e+00     27.654     0.4690 0.0000e+00
     29.000     8.4281    30.9590    9.85987  102.19792    24.0378 1.7874e+00     28.785     0.4896 0.0000e+00
     30.000     8.4096    30.9694    9.87967  102.39311    24.0473 1.7334e+00     29.878     0.4940 0.0000e+00
     31.000     8.3954    30.9930    9.86737  102.25700    24.0690 1.6901e+00     31.025     0.5037 0.0000e+00
     32.000     8.3606    31.0129    9.84992  102.06843    24.0871 1.6571e+00     32.254     0.5082 0.0000e+00
     33.000     8.2886    31.0453    9.86990  102.26630    24.1161 1.6337e+00     33.440     0.4816 0.0000e+00
     34.000     8.1927    31.1020    9.87243  102.28457    24.1676 1.6147e+00     34.643     0.5118 0.0000e+00
     35.000     8.1770    31.1875    9.86385  102.19161    24.2461 1.6018e+00     35.379     0.4989 0.0000e+00
     36.000     8.1432    31.2449    9.88065  102.35573    24.2994 1.5910e+00     36.537     0.5209 0.0000e+00
     37.000     8.1387    31.2720    9.88418  102.38239    24.3248 1.5823e+00     37.428     0.5032 0.0000e+00
     38.000     8.1205    31.2890    9.88371  102.37172    24.3409 1.5755e+00     38.520     0.5054 0.0000e+00
     39.000     8.0999    31.2911    9.88330  102.36729    24.3429 1.5706e+00     39.347     0.5153 0.0000e+00
     40.000     8.0905    31.3072    9.91083  102.65054    24.3587 1.5661e+00     40.462     0.5232 0.0000e+00
     41.000     8.0887    31.3212    9.88543  102.38697    24.3722 1.5630e+00     41.344     0.5370 0.0000e+00
     42.000     8.0845    31.3268    9.89565  102.49146    24.3774 1.5600e+00     42.386     0.5514 0.0000e+00
     43.000     8.0809    31.3310    9.88322  102.35187    24.3812 1.5577e+00     43.438     0.5223 0.0000e+00
     44.000     8.0769    31.3346    9.89375  102.44958    24.3847 1.5553e+00     44.395     0.5107 0.0000e+00
     45.000     8.0730    31.3379    9.88836  102.38362    24.3877 1.5540e+00     45.416     0.5226 0.0000e+00
     46.000     8.0697    31.3431    9.89481  102.44591    24.3924 1.5529e+00     46.410     0.5353 0.0000e+00
     47.000     8.0654    31.3460    9.88537  102.35111    24.3952 1.5514e+00     47.381     0.5377 0.0000e+00
     48.000     8.0585    31.3494    9.90843  102.57132    24.3983 1.5502e+00     48.405     0.5062 0.0000e+00
     49.000     8.0538    31.3565    9.89155  102.38539    24.4048 1.5493e+00     49.380     0.5325 0.0000e+00
     50.000     8.0528    31.3638    9.89300  102.37575    24.4115 1.5489e+00     50.350     0.5544 0.0000e+00
     51.000     8.0518    31.3670    9.89256  102.36228    24.4144 1.5481e+00     51.310     0.5957 0.0000e+00
     52.000     8.0510    31.3675    9.90081  102.44429    24.4149 1.5480e+00     52.421     0.5513 0.0000e+00
     53.000     8.0508    31.3685    9.90693  102.50157    24.4158 1.5473e+00     53.318     0.5620 0.0000e+00
     54.000     8.0446    31.3684    9.90220  102.44940    24.4158 1.5470e+00     54.468     0.5613 0.0000e+00
     55.000     8.0375    31.3715    9.90283  102.45573    24.4187 1.5469e+00     55.440     0.5122 0.0000e+00
     56.000     8.0301    31.3774    9.89946  102.42087    24.4243 1.5462e+00     56.653     0.5617 0.0000e+00
     57.000     8.0309    31.3843    9.90517  102.47926    24.4309 1.5462e+00     57.634     0.5774 0.0000e+00
     58.000     8.0246    31.3858    9.91047  102.53410    24.4324 1.5461e+00     58.654     0.6138 0.0000e+00
     59.000     8.0155    31.3842    9.91227  102.55351    24.4309 1.5461e+00     59.633     0.6161 0.0000e+00
     60.000     8.0059    31.3935    9.91656  102.59829    24.4398 1.5461e+00     60.588     0.5527 0.0000e+00
     61.000     7.9968    31.3997    9.91222  102.55474    24.4456 1.5457e+00     61.637     0.6029 0.0000e+00
     62.000     7.9940    31.4183    9.91019  102.53410    24.4628 1.5459e+00     62.573     0.6545 0.0000e+00
     63.000     7.9889    31.4180    9.91092  102.54385    24.4627 1.5457e+00     63.638     0.5801 0.0000e+00
     64.000     7.9867    31.4256    9.91236  102.56037    24.4691 1.5454e+00     64.700     0.6188 0.0000e+00
     65.000     7.9864    31.4299    9.91534  102.59154    24.4730 1.5457e+00     65.615     0.6871 0.0000e+00
     66.000     7.9861    31.4315    9.92217  102.66202    24.4745 1.5456e+00     66.891     0.6583 0.0000e+00
     67.000     7.9858    31.4313    9.92402  102.68185    24.4744 1.5453e+00     67.851     0.7173 0.0000e+00
     68.000     7.9857    31.4315    9.92289  102.67092    24.4745 1.5453e+00     68.921     0.6898 0.0000e+00
     69.000     7.9860    31.4319    9.91691  102.60983    24.4748 1.5454e+00     69.928     0.6898 0.0000e+00
     70.000     7.9864    31.4317    9.91569  102.59717    24.4747 1.5453e+00     70.828     0.6773 0.0000e+00
     71.000     7.9864    31.4315    9.91365  102.57669    24.4745 1.5454e+00     71.800     0.6935 0.0000e+00
     72.000     7.9870    31.4316    9.91281  102.56785    24.4745 1.5451e+00     72.813     0.6984 0.0000e+00
     73.000     7.9875    31.4317    9.91201  102.55869    24.4746 1.5453e+00     73.642     0.7146 0.0000e+00
     74.000     7.9883    31.4309    9.91122  102.55184    24.4739 1.5451e+00     74.606     0.6961 0.0000e+00
     75.000     7.9892    31.4301    9.91560  102.59950    24.4732 1.5454e+00     75.499     0.7080 0.0000e+00
     76.000     7.9898    31.4293    9.91783  102.61981    24.4724 1.5455e+00     76.403     0.7196 0.0000e+00
     77.000     7.9898    31.4283    9.91823  102.62621    24.4715 1.5457e+00     77.268     0.7374 0.0000e+00
     78.000     7.9899    31.4281    9.91556  102.59856    24.4713 1.5453e+00     78.140     0.7748 0.0000e+00
     79.000     7.9899    31.4285    9.91074  102.55652    24.4717 1.5455e+00     78.972     0.7810 0.0000e+00
     80.000     7.9903    31.4280    9.91463  102.59687    24.4712 1.5454e+00     79.742     0.7786 0.0000e+00
     81.000     7.9908    31.4276    9.91512  102.59713    24.4709 1.5454e+00     80.478     0.7921 0.0000e+00
     82.000     7.9924    31.4267    9.90707  102.51063    24.4699 1.5464e+00     81.668     0.9032 0.0000e+00
     81.000     7.9924    31.4258    9.90055  102.43965    24.4688 1.5456e+00     81.211     0.9424 0.0000e+00
     80.000     7.9918    31.4268    9.89581  102.38813    24.4699 1.5456e+00     80.380     0.9185 0.0000e+00
     79.000     7.9912    31.4275    9.89525  102.38126    24.4706 1.5477e+00     79.410     0.8641 0.0000e+00
     78.000     7.9917    31.4278    9.90108  102.44309    24.4709 1.5459e+00     78.512     0.9113 0.0000e+00
     77.000     7.9917    31.4282    9.90082  102.43791    24.4712 1.5454e+00     77.587     0.8997 0.0000e+00
     76.000     7.9913    31.4281    9.89757  102.40677    24.4710 1.5452e+00     76.629     0.7651 0.0000e+00
     75.000     7.9909    31.4289    9.89096  102.33614    24.4718 1.5452e+00     75.654     0.8002 0.0000e+00
     74.000     7.9899    31.4293    9.88841  102.31043    24.4721 1.5452e+00     74.720     0.7840 0.0000e+00
     73.000     7.9891    31.4297    9.88728  102.29950    24.4726 1.5453e+00     73.636     0.7247 0.0000e+00
     72.000     7.9888    31.4298    9.89587  102.38686    24.4726 1.5453e+00     72.648     0.6942 0.0000e+00
     71.000     7.9887    31.4302    9.89088  102.33631    24.4731 1.5452e+00     71.648     0.7075 0.0000e+00
     70.000     7.9889    31.4305    9.89063  102.34256    24.4734 1.5453e+00     70.692     0.7236 0.0000e+00
     69.000     7.9884    31.4293    9.89039  102.35145    24.4723 1.5454e+00     69.650     0.8443 0.0000e+00
     68.000     7.9885    31.4297    9.89705  102.42617    24.4728 1.5452e+00     68.627     0.8194 0.0000e+00
     67.000     7.9882    31.4297    9.90053  102.47426    24.4727 1.5453e+00     67.593     0.8123 0.0000e+00
     66.000     7.9890    31.4293    9.89400  102.41507    24.4724 1.5454e+00     66.576     0.7334 0.0000e+00
     65.000     7.9897    31.4290    9.90715  102.55624    24.4722 1.5457e+00     65.660     0.7539 0.0000e+00
     64.000     7.9886    31.4264    9.89983  102.48882    24.4700 1.5455e+00     64.649     0.6853 0.0000e+00
     63.000     7.9899    31.4263    9.90975  102.60003    24.4700 1.5459e+00     63.571     0.6298 0.0000e+00
     62.000     7.9950    31.4273    9.90127  102.51631    24.4708 1.5456e+00     62.685     0.6765 0.0000e+00
     61.000     8.0034    31.4183    9.91625  102.68152    24.4630 1.5459e+00     61.665     0.6328 0.0000e+00
     60.000     8.0068    31.4088    9.90858  102.61481    24.4544 1.5459e+00     60.703     0.6104 0.0000e+00
     59.000     8.0140    31.4039    9.91137  102.65213    24.4500 1.5460e+00     59.672     0.6069 0.0000e+00
     58.000     8.0187    31.3973    9.90775  102.62266    24.4437 1.5461e+00     58.624     0.6417 0.0000e+00
     57.000     8.0226    31.3935    9.90837  102.63387    24.4401 1.5463e+00     57.649     0.5786 0.0000e+00
     56.000     8.0282    31.3904    9.90577  102.60953    24.4370 1.5464e+00     56.586     0.6172 0.0000e+00
     55.000     8.0320    31.3857    9.91031  102.66686    24.4325 1.5470e+00     55.526     0.5842 0.0000e+00
     54.000     8.0376    31.3831    9.90578  102.62636    24.4300 1.5470e+00     54.561     0.5979 0.0000e+00
     53.000     8.0457    31.3781    9.90120  102.58281    24.4253 1.5471e+00     53.571     0.6229 0.0000e+00
     52.000     8.0511    31.3703    9.91405  102.72408    24.4179 1.5475e+00     52.489     0.6223 0.0000e+00
     51.000     8.0561    31.3661    9.91005  102.68889    24.4140 1.5481e+00     51.481     0.5723 0.0000e+00
     50.000     8.0586    31.3609    9.91388  102.73192    24.4092 1.5487e+00     50.514     0.5681 0.0000e+00
     49.000     8.0614    31.3582    9.90610  102.65539    24.4067 1.5492e+00     49.465     0.5298 0.0000e+00
     48.000     8.0680    31.3538    9.90643  102.66194    24.4028 1.5502e+00     48.419     0.5356 0.0000e+00
     47.000     8.0706    31.3472    9.89881  102.58852    24.3968 1.5512e+00     47.451     0.5468 0.0000e+00
     46.000     8.0744    31.3440    9.89929  102.61018    24.3938 1.5522e+00     46.413     0.5442 0.0000e+00
     45.000     8.0783    31.3403    9.90567  102.70529    24.3904 1.5535e+00     45.471     0.5102 0.0000e+00
     44.000     8.0815    31.3356    9.91119  102.79481    24.3861 1.5552e+00     44.373     0.5185 0.0000e+00
     43.000     8.0841    31.3329    9.91318  102.84557    24.3836 1.5573e+00     43.376     0.5036 0.0000e+00
     42.000     8.0860    31.3303    9.91508  102.90694    24.3812 1.5592e+00     42.391     0.5340 0.0000e+00
     41.000     8.0879    31.3280    9.91366  102.95954    24.3791 1.5621e+00     41.286     0.5636 0.0000e+00
     40.000     8.0916    31.3264    9.90742  103.01856    24.3776 1.5658e+00     40.392     0.5282 0.0000e+00
     39.000     8.1019    31.3221    9.91191  103.18286    24.3736 1.5700e+00     39.352     0.5347 0.0000e+00
     38.000     8.1190    31.3142    9.91470  103.26276    24.3660 1.5743e+00     38.390     0.5140 0.0000e+00
     37.000     8.1362    31.2980    9.90463  103.20299    24.3506 1.5813e+00     37.257     0.5127 0.0000e+00
     36.000     8.1515    31.2867    9.90787  103.25364    24.3398 1.5888e+00     36.327     0.5907 0.0000e+00
     35.000     8.1755    31.2728    9.90709  103.28400    24.3266 1.5984e+00     35.356     0.5256 0.0000e+00
     34.000     8.2149    31.2450    9.90330  103.27903    24.3010 1.6120e+00     34.272     0.5510 0.0000e+00
     33.000     8.2926    31.2046    9.89766  103.24595    24.2642 1.6295e+00     33.309     0.5200 0.0000e+00
     32.000     8.3608    31.1130    9.89597  103.25243    24.1811 1.6518e+00     32.287     0.5501 0.0000e+00
     31.000     8.3945    31.0439    9.88957  103.20567    24.1175 1.6812e+00     31.314     0.5224 0.0000e+00
     30.000     8.4203    31.0016    9.88461  103.17948    24.0788 1.7228e+00     30.260     0.5198 0.0000e+00
     29.000     8.4346    30.9745    9.87064  103.07721    24.0537 1.7759e+00     29.186     0.5238 0.0000e+00
     28.000     8.4552    30.9621    9.87169  103.11987    24.0424 1.8422e+00     28.273     0.5022 0.0000e+00
     27.000     8.4748    30.9387    9.88633  103.29407    24.0208 1.9316e+00     27.262     0.5007 0.0000e+00
     26.000     8.4930    30.9159    9.90505  103.50905    23.9998 2.0454e+00     26.229     0.4957 0.0000e+00
     25.000     8.5077    30.8981    9.89002  103.37166    23.9834 2.2034e+00     25.112     0.4903 0.0000e+00
     24.000     8.5195    30.8842    9.89728  103.47268    23.9706 2.4020e+00     24.179     0.4662 0.0000e+00
     23.000     8.5333    30.8707    9.89107  103.49157    23.9582 2.6635e+00     23.154     0.5044 0.0000e+00
     22.000     8.5514    30.8566    9.88572  103.50299    23.9454 3.0397e+00     22.202     0.4768 0.0000e+00
     21.000     8.5766    30.8355    9.88470  103.54751    23.9260 3.5618e+00     21.139     0.4948 0.0000e+00
     20.000     8.5916    30.8105    9.87532  103.50434    23.9030 4.2100e+00     20.167     0.5183 0.0000e+00
     19.000     8.6008    30.7935    9.87453  103.54834    23.8871 5.0823e+00     19.180     0.5469 0.0000e+00
     18.000     8.6116    30.7858    9.85961  103.43571    23.8800 6.4525e+00     18.232     0.5110 0.0000e+00
     17.000     8.6232    30.7723    9.86019  103.52677    23.8676 8.2508e+00     17.097     0.5133 0.0000e+00
     16.000     8.6500    30.7613    9.86862  103.65813    23.8575 1.0711e+01     16.166     0.5025 0.0000e+00
     15.000     8.6963    30.7377    9.90212  104.03874    23.8362 1.3894e+01     15.129     0.4897 0.0000e+00
     14.000     8.7334    30.6845    9.88892  103.92142    23.7877 1.8531e+01     14.214     0.5025 0.0000e+00
     13.000     8.7669    30.6397    9.91056  104.17516    23.7460 2.5246e+01     13.143     0.5124 0.0000e+00
     12.000     8.8029    30.6049    9.92747  104.38380    23.7141 3.4255e+01     12.146     0.5051 0.0000e+00
     11.000     8.8297    30.5688    9.93140  104.62667    23.6806 4.7153e+01     11.180     0.5310 0.0000e+00
     10.000     8.8694    30.5359   10.00745  105.99471    23.6499 6.4051e+01      9.986     0.5545 0.0000e+00
      9.000     8.9113    30.5091   10.01760  106.19298    23.6250 8.9712e+01      9.195     0.6059 0.0000e+00
      8.000     8.9400    30.4549    9.98900  105.89891    23.5744 1.2801e+02      8.081     0.6312 0.0000e+00
      7.000     8.9503    30.4329   11.23385  103.50378    23.5538 1.8079e+02      7.140     0.6843 0.0000e+00
      6.000     8.9613    30.4236   11.43122  102.80010    23.5445 2.5970e+02      6.120     0.6302 0.0000e+00
      5.000     8.9761    30.4191   10.90619  102.92436    23.5393 3.7300e+02      5.151     0.5331 0.0000e+00
      4.000     9.0024    30.4145   11.63024  103.49318    23.5334 5.3826e+02      4.196     0.4322 0.0000e+00
      3.000     9.1892    30.4228   11.57300  102.92816    23.5362 7.5640e+02      3.311     0.3559 0.0000e+00
      2.000     9.3244    30.3965   11.61941  102.74179    23.4903 1.1434e+03      2.520     0.3082 0.0000e+00
      1.000     9.3700    30.3444   11.66793  102.73694    23.4272 2.6207e+03      1.812     0.4464 0.0000e+00
