* Sea-Bird SBE19plus Data File:
* FileName = C:\data\otf\2007\ctd-07058.hex
* Software Version 1.55
* Temperature SN =  5061
* Conductivity SN =  5061
* System UpLoad Time = Aug 15 2007 16:13:00
* ds
* SeacatPlus V 1.6a  SERIAL NO. 5061    15 Aug 2007  15:31:53
* vbatt = 10.9, vlith =  8.7, ioper =  61.6 ma, ipump =  57.5 ma, 
* iext01 =  95.2 ma
* iext23 =  58.1 ma
* 
* status = not logging
* number of scans to average = 1
* samples = 153039, free = 288466, casts = 154
* mode = profile, minimum cond freq = 3000, pump delay = 60 sec
* autorun = no, ignore magnetic switch = no
* battery type = alkaline, battery cutoff =  7.3 volts
* pressure sensor = strain gauge, range = 870.0
* SBE 38 = no, Gas Tension Device = no
* Ext Volt 0 = yes, Ext Volt 1 = yes, Ext Volt 2 = yes, Ext Volt 3 = yes
* echo commands = yes
* output format = raw HEX
* S>
* 
* SeacatPlus V 1.6a  SERIAL NO. 5061    15 Aug 2007  15:32:18
* temperature:  05-oct-06
*     TA0 = 1.254184e-03
*     TA1 = 2.596730e-04
*     TA2 = 5.165612e-07
*     TA3 = 1.318931e-07
*     TOFFSET = 0.000000e+00
* conductivity:  05-oct-06
*     G = -9.978144e-01
*     H = 1.555200e-01
*     I = -4.839108e-04
*     J = 6.121100e-05
*     CF0 = 2.539936e+03
*     CPCOR = -9.570000e-08
*     CTCOR = 3.250000e-06
*     CSLOPE = 1.000000e+00
* pressure S/N = 2362539, range = 870 psia:  24-aug-06
*     PA0 = 2.171091e-01
*     PA1 = 2.647085e-03
*     PA2 = 1.419397e-11
*     PTCA0 = 5.242437e+05
*     PTCA1 = 7.545345e+00
*     PTCA2 = -1.835354e-01
*     PTCB0 = 2.537125e+01
*     PTCB1 = -1.750000e-03
*     PTCB2 = 0.000000e+00
*     PTEMPA0 = -5.753989e+01
*     PTEMPA1 = 5.235813e+01
*     PTEMPA2 = -4.015521e-02
*     POFFSET = 0.000000e+00
* volt 0: offset = -4.682842e-02, slope = 1.249147e+00
* volt 1: offset = -4.695158e-02, slope = 1.248145e+00
* volt 2: offset = -4.685263e-02, slope = 1.248783e+00
* volt 3: offset = -4.690316e-02, slope = 1.249508e+00
*     EXTFREQSF = 1.000002e+00
* dh
* cast  58 12 Jul 2007 06:03:24 samples 45074 to 45292, avg = 4, stop = mag switch
* S> 
# nquan = 10
# nvalues = 103                         
# units = specified
# name 0 = depSM: Depth [salt water, m]
# name 1 = tv290C: Temperature [ITS-90, deg C]
# name 2 = sal00: Salinity [PSU]
# name 3 = sbeox0Mg/L: Oxygen, SBE 43 [mg/l]
# name 4 = sbeox0PS: Oxygen, SBE 43 [% saturation]
# name 5 = sigma-t00: Density [sigma-t, Kg/m^3 ]
# name 6 = par: PAR/Irradiance, Biospherical/Licor
# name 7 = prdM: Pressure, Strain Gauge [db]
# name 8 = flECO-AFL: Fluorescence, Wetlab ECO-AFL/FL [mg/m^3]
# name 9 = flag: flag
# span 0 =      1.000,     54.000       
# span 1 =     8.2160,     9.7260       
# span 2 =    30.1049,    31.4175       
# span 3 =    8.80327,   11.23020       
# span 4 =   93.27259,  102.40494       
# span 5 =    23.1763,    24.4306       
# span 6 = 1.5450e+00, 2.0201e+01       
# span 7 =      1.837,     53.067       
# span 8 =     0.4008,     0.7935       
# span 9 = 0.0000e+00, 0.0000e+00       
# interval = meters: 1                  
# start_time = Jul 12 2007 06:03:24
# bad_flag = -9.990e-29
# sensor 0 = Frequency 0  temperature, 5061, 05-Oct-06
# sensor 1 = Frequency 1  conductivity, 5061, 05-Oct-06, cpcor = -9.5700e-08
# sensor 2 = Pressure Number
# sensor 3 = Extrnl Volt  0  irradiance (PAR), primary, 4751, 08/10/06
# sensor 4 = Extrnl Volt  1  Oxygen, SBE, primary, 1081, 10/24/06
# sensor 5 = Extrnl Volt  2  WET Labs, ECO_AFL
# sensor 6 = Extrnl Volt  3  userpoly 0, 0627, 10/11/06
# datcnv_date = Oct 15 2007 14:49:45, 5.37e
# datcnv_in = I:\bob d\OTF_GEM\2007\ctd-07058.hex I:\Willette\OTF\CTD\5061.con
# datcnv_skipover = 0
# filter_date = Oct 15 2007 15:02:25, 5.37e
# filter_in = I:\Willette\OTF\CTD\2007\CTD Data\ctd-07058.cnv
# filter_low_pass_tc_A = 1.000
# filter_low_pass_tc_B = 0.150
# filter_low_pass_A_vars = prdM
# filter_low_pass_B_vars =
# loopedit_date = Oct 15 2007 15:06:47, 5.37e
# loopedit_in = I:\Willette\OTF\CTD\2007\CTD Data\ctd-07058.cnv
# loopedit_minVelocity = 0.250                                                                                            
# loopedit_surfaceSoak: minDepth = 5.0, maxDepth = 20, useDeckPress = 1                                                   
# loopedit_excl_bad_scans = yes
# alignctd_date = Oct 15 2007 15:14:15, 5.37e
# alignctd_in = I:\Willette\OTF\CTD\2007\CTD Data\ctd-07058.cnv
# alignctd_adv = tv290C 0.500, sbeox0Mg/L 4.000, sbeox0PS 4.000                                                                                                                                                                      
# binavg_date = Oct 15 2007 15:18:44, 5.37e
# binavg_in = I:\Willette\OTF\CTD\2007\CTD Data\ctd-07058.cnv
# binavg_bintype = meters
# binavg_binsize = 1
# binavg_excl_bad_scans = yes
# binavg_skipover = 0
# binavg_surface_bin = no, min = 0.000, max = 0.000, value = 0.000
# file_type = ascii
*END*
      5.000     9.7217    30.1674    8.80327   93.27259    23.2227 4.4712e+00      5.103     0.7552 0.0000e+00
      6.000     9.6504    30.2015    8.87975   94.03110    23.2514 3.6835e+00      6.142     0.7027 0.0000e+00
      7.000     9.5516    30.2649    8.92500   94.30041    23.3156 3.1666e+00      7.472     0.6567 0.0000e+00
      8.000     9.4529    30.2906    9.05523   95.36671    23.3483 2.7823e+00      8.625     0.6075 0.0000e+00
      9.000     9.4038    30.2993    9.21000   96.85720    23.3672 2.4812e+00      9.595     0.5750 0.0000e+00
     10.000     9.3783    30.3394    9.33853   98.13552    23.4089 2.2357e+00     10.612     0.5674 0.0000e+00
     11.000     9.3798    30.3227    9.40543   98.60655    23.3991 2.0627e+00     11.579     0.5685 0.0000e+00
     12.000     9.3648    30.3379    9.43148   98.73837    23.4120 1.9428e+00     12.439     0.5631 0.0000e+00
     13.000     9.3511    30.3423    9.46429   98.82784    23.4163 1.8500e+00     13.278     0.5624 0.0000e+00
     14.000     9.3355    30.3489    9.50058   99.03930    23.4234 1.7699e+00     14.237     0.5405 0.0000e+00
     15.000     9.3166    30.3546    9.55322   99.56092    23.4304 1.7127e+00     15.247     0.5579 0.0000e+00
     16.000     9.2989    30.3588    9.58645   99.91164    23.4362 1.6710e+00     16.242     0.5327 0.0000e+00
     17.000     9.2297    30.3746    9.61465  100.18804    23.4514 1.6424e+00     17.255     0.5253 0.0000e+00
     18.000     9.1293    30.4086    9.63364  100.35604    23.4840 1.6207e+00     18.209     0.5243 0.0000e+00
     19.000     8.9879    30.4707    9.65542  100.53019    23.5426 1.6021e+00     19.287     0.4929 0.0000e+00
     20.000     8.9172    30.5629    9.67713  100.68167    23.6310 1.5895e+00     20.198     0.4551 0.0000e+00
     21.000     8.8657    30.7089    9.69590  100.85242    23.7685 1.5789e+00     21.299     0.4057 0.0000e+00
     22.000     8.8308    30.7710    9.70944  100.97483    23.8265 1.5714e+00     22.410     0.4008 0.0000e+00
     23.000     8.6995    30.7976    9.72573  101.14790    23.8508 1.5670e+00     23.333     0.4120 0.0000e+00
     24.000     8.5800    30.8908    9.73712  101.27077    23.9374 1.5635e+00     24.298     0.4150 0.0000e+00
     25.000     8.3873    30.9853    9.74665  101.36585    24.0252 1.5601e+00     25.475     0.4082 0.0000e+00
     26.000     8.3385    31.1210    9.75411  101.44259    24.1508 1.5584e+00     26.380     0.4138 0.0000e+00
     27.000     8.3378    31.2823    9.75964  101.49930    24.3020 1.5566e+00     27.361     0.4277 0.0000e+00
     28.000     8.3423    31.3211    9.75995  101.50136    24.3393 1.5554e+00     28.417     0.4784 0.0000e+00
     29.000     8.3391    31.3101    9.77013  101.60753    24.3289 1.5543e+00     29.228     0.4485 0.0000e+00
     30.000     8.3134    31.3018    9.77645  101.67461    24.3215 1.5535e+00     30.515     0.4355 0.0000e+00
     31.000     8.2948    31.3138    9.77979  101.70882    24.3325 1.5532e+00     31.306     0.4192 0.0000e+00
     32.000     8.2557    31.3287    9.77847  101.69501    24.3467 1.5526e+00     32.306     0.4325 0.0000e+00
     33.000     8.2325    31.3514    9.77889  101.70027    24.3679 1.5526e+00     33.292     0.4404 0.0000e+00
     34.000     8.2223    31.3877    9.77878  101.70120    24.4022 1.5525e+00     34.312     0.4545 0.0000e+00
     35.000     8.2180    31.4049    9.77789  101.69396    24.4185 1.5522e+00     35.239     0.4815 0.0000e+00
     36.000     8.2175    31.4140    9.77875  101.70392    24.4272 1.5524e+00     36.332     0.4938 0.0000e+00
     37.000     8.2199    31.4166    9.78345  101.75331    24.4297 1.5517e+00     37.214     0.5021 0.0000e+00
     38.000     8.2177    31.4157    9.78931  101.81365    24.4291 1.5521e+00     38.297     0.4946 0.0000e+00
     39.000     8.2171    31.4133    9.79533  101.87569    24.4267 1.5518e+00     39.171     0.5012 0.0000e+00
     40.000     8.2162    31.4164    9.79400  101.86032    24.4296 1.5518e+00     40.469     0.5246 0.0000e+00
     41.000     8.2160    31.4164    9.79154  101.83684    24.4297 1.5517e+00     41.209     0.5171 0.0000e+00
     42.000     8.2163    31.4172    9.80813  102.01184    24.4303 1.5514e+00     42.312     0.5064 0.0000e+00
     43.000     8.2163    31.4175    9.81015  102.03277    24.4306 1.5516e+00     43.229     0.5236 0.0000e+00
     44.000     8.2169    31.4170    9.81404  102.07512    24.4301 1.5515e+00     44.258     0.5392 0.0000e+00
     45.000     8.2168    31.4168    9.81780  102.11450    24.4300 1.5516e+00     45.191     0.5436 0.0000e+00
     46.000     8.2177    31.4156    9.81955  102.13123    24.4290 1.5514e+00     46.223     0.5254 0.0000e+00
     47.000     8.2188    31.4157    9.82107  102.14451    24.4291 1.5514e+00     47.051     0.5536 0.0000e+00
     48.000     8.2198    31.4151    9.81268  102.05728    24.4284 1.5510e+00     48.075     0.5383 0.0000e+00
     49.000     8.2200    31.4144    9.81259  102.05798    24.4277 1.5510e+00     48.963     0.5840 0.0000e+00
     50.000     8.2201    31.4138    9.81630  102.09602    24.4271 1.5513e+00     49.920     0.6344 0.0000e+00
     51.000     8.2196    31.4140    9.82020  102.13597    24.4273 1.5516e+00     50.630     0.5737 0.0000e+00
     52.000     8.2189    31.4129    9.82484  102.18386    24.4265 1.5517e+00     51.465     0.5929 0.0000e+00
     53.000     8.2205    31.4143    9.81518  102.08309    24.4276 1.5509e+00     52.127     0.5367 0.0000e+00
     54.000     8.2210    31.4128    9.81719  102.10285    24.4261 1.5450e+00     53.067     0.6211 0.0000e+00
     53.000     8.2215    31.4144    9.82126  102.14301    24.4277 1.5543e+00     52.277     0.5007 0.0000e+00
     52.000     8.2207    31.4138    9.82006  102.13202    24.4271 1.5521e+00     52.043     0.5594 0.0000e+00
     51.000     8.2203    31.4130    9.82061  102.13692    24.4264 1.5564e+00     51.395     0.7020 0.0000e+00
     50.000     8.2201    31.4134    9.82590  102.19229    24.4268 1.5526e+00     50.368     0.6584 0.0000e+00
     49.000     8.2202    31.4133    9.82643  102.19802    24.4268 1.5508e+00     49.339     0.5986 0.0000e+00
     48.000     8.2198    31.4133    9.83238  102.26710    24.4268 1.5505e+00     48.379     0.5673 0.0000e+00
     47.000     8.2194    31.4131    9.83926  102.34952    24.4266 1.5505e+00     47.403     0.5450 0.0000e+00
     46.000     8.2193    31.4132    9.83814  102.32857    24.4267 1.5505e+00     46.410     0.5950 0.0000e+00
     45.000     8.2191    31.4134    9.83948  102.34755    24.4269 1.5503e+00     45.494     0.5913 0.0000e+00
     44.000     8.2192    31.4134    9.82941  102.26198    24.4270 1.5504e+00     44.402     0.5976 0.0000e+00
     43.000     8.2196    31.4134    9.82938  102.29366    24.4270 1.5503e+00     43.405     0.6167 0.0000e+00
     42.000     8.2199    31.4118    9.82024  102.22516    24.4257 1.5499e+00     42.406     0.5644 0.0000e+00
     41.000     8.2246    31.4112    9.82706  102.32415    24.4251 1.5501e+00     41.428     0.5490 0.0000e+00
     40.000     8.2316    31.4060    9.82064  102.28192    24.4203 1.5498e+00     40.380     0.5409 0.0000e+00
     39.000     8.2255    31.3994    9.82021  102.30641    24.4141 1.5497e+00     39.330     0.5244 0.0000e+00
     38.000     8.2297    31.4055    9.81920  102.34660    24.4199 1.5497e+00     38.318     0.5298 0.0000e+00
     37.000     8.2419    31.4006    9.82067  102.38740    24.4154 1.5499e+00     37.348     0.5057 0.0000e+00
     36.000     8.2611    31.3893    9.81931  102.40494    24.4049 1.5499e+00     36.395     0.4809 0.0000e+00
     35.000     8.2773    31.3690    9.81150  102.34705    24.3858 1.5499e+00     35.309     0.4649 0.0000e+00
     34.000     8.2950    31.3549    9.78615  102.06985    24.3725 1.5499e+00     34.268     0.4713 0.0000e+00
     33.000     8.3068    31.3392    9.76920  101.91617    24.3579 1.5502e+00     33.294     0.4883 0.0000e+00
     32.000     8.3229    31.3285    9.77142  102.09543    24.3478 1.5504e+00     32.327     0.4796 0.0000e+00
     31.000     8.3514    31.3060    9.76810  102.39152    24.3269 1.5504e+00     31.259     0.4618 0.0000e+00
     30.000     8.3711    31.2849    9.72950  102.12961    24.3073 1.5512e+00     30.206     0.4654 0.0000e+00
     29.000     8.3889    31.2651    9.70207  101.90128    24.2888 1.5517e+00     29.208     0.4566 0.0000e+00
     28.000     8.3962    31.2473    9.68793  101.78700    24.2723 1.5525e+00     28.252     0.4876 0.0000e+00
     27.000     8.3918    31.2381    9.67659  101.75194    24.2635 1.5541e+00     27.218     0.4378 0.0000e+00
     26.000     8.4056    31.2443    9.66599  101.93959    24.2694 1.5551e+00     26.173     0.4605 0.0000e+00
     25.000     8.4996    31.2290    9.65737  102.12707    24.2554 1.5579e+00     25.111     0.4513 0.0000e+00
     24.000     8.6701    31.1409    9.64289  102.04337    24.1746 1.5610e+00     24.182     0.4410 0.0000e+00
     23.000     8.7613    30.9737    9.62662  101.90902    24.0196 1.5651e+00     23.185     0.4458 0.0000e+00
     22.000     8.8153    30.8677    9.61184  101.79862    23.9202 1.5704e+00     22.150     0.4728 0.0000e+00
     21.000     8.8295    30.8148    9.61826  101.91906    23.8706 1.5786e+00     21.121     0.4515 0.0000e+00
     20.000     8.8548    30.8059    9.62680  102.03312    23.8617 1.5890e+00     20.112     0.4663 0.0000e+00
     19.000     8.9343    30.7827    9.62740  102.06024    23.8403 1.6040e+00     19.164     0.4633 0.0000e+00
     18.000     9.1208    30.7257    9.62044  102.00189    23.7873 1.6217e+00     18.117     0.4803 0.0000e+00
     17.000     9.2248    30.5620    9.60836  101.87896    23.6357 1.6472e+00     17.195     0.5194 0.0000e+00
     16.000     9.2740    30.4362    9.60775  101.89918    23.5165 1.6828e+00     16.224     0.5440 0.0000e+00
     15.000     9.2989    30.3667    9.60805  101.97335    23.4503 1.7275e+00     15.203     0.5866 0.0000e+00
     14.000     9.3170    30.3564    9.61054  102.08497    23.4394 1.7871e+00     14.195     0.5874 0.0000e+00
     13.000     9.3432    30.3497    9.59980  102.14769    23.4313 1.8693e+00     13.233     0.6363 0.0000e+00
     12.000     9.3583    30.3370    9.59968  102.37510    23.4170 1.9834e+00     12.141     0.5917 0.0000e+00
     11.000     9.3714    30.3323    9.58148  102.24717    23.4109 2.1340e+00     11.045     0.6105 0.0000e+00
     10.000     9.3783    30.3271    9.56409  102.05263    23.4052 2.3363e+00     10.091     0.6466 0.0000e+00
      9.000     9.3825    30.3205    9.54711  101.86193    23.3986 2.5955e+00      9.096     0.6837 0.0000e+00
      8.000     9.3976    30.3164    9.41907  100.45780    23.3949 2.9515e+00      8.077     0.6731 0.0000e+00
      7.000     9.4388    30.3171   10.00224   99.30573    23.3934 3.4406e+00      7.090     0.6722 0.0000e+00
      6.000     9.4865    30.3094   11.02008   99.75657    23.3814 4.1094e+00      6.129     0.6482 0.0000e+00
      5.000     9.5911    30.3071   11.23020  100.30265    23.3724 5.0070e+00      5.175     0.6683 0.0000e+00
      4.000     9.6793    30.2906 -9.990e-29 -9.990e-29    23.3449 6.1451e+00      4.209     0.6886 0.0000e+00
      3.000     9.7183    30.2182 -9.990e-29 -9.990e-29    23.2725 7.6522e+00      3.353     0.7375 0.0000e+00
      2.000     9.7260    30.1590 -9.990e-29 -9.990e-29    23.2206 9.7850e+00      2.555     0.7616 0.0000e+00
      1.000     9.7246    30.1049 -9.990e-29 -9.990e-29    23.1763 2.0201e+01      1.837     0.7935 0.0000e+00
