* Sea-Bird SBE19plus Data File:
* FileName = C:\data\otf\2007\ctd-07123.hex
* Software Version 1.55
* Temperature SN =  5061
* Conductivity SN =  5061
* System UpLoad Time = Aug 15 2007 17:18:20
* ds
* SeacatPlus V 1.6a  SERIAL NO. 5061    15 Aug 2007  15:31:53
* vbatt = 10.9, vlith =  8.7, ioper =  61.6 ma, ipump =  57.5 ma, 
* iext01 =  95.2 ma
* iext23 =  58.1 ma
* 
* status = not logging
* number of scans to average = 1
* samples = 153039, free = 288466, casts = 154
* mode = profile, minimum cond freq = 3000, pump delay = 60 sec
* autorun = no, ignore magnetic switch = no
* battery type = alkaline, battery cutoff =  7.3 volts
* pressure sensor = strain gauge, range = 870.0
* SBE 38 = no, Gas Tension Device = no
* Ext Volt 0 = yes, Ext Volt 1 = yes, Ext Volt 2 = yes, Ext Volt 3 = yes
* echo commands = yes
* output format = raw HEX
* S>
* 
* SeacatPlus V 1.6a  SERIAL NO. 5061    15 Aug 2007  15:32:18
* temperature:  05-oct-06
*     TA0 = 1.254184e-03
*     TA1 = 2.596730e-04
*     TA2 = 5.165612e-07
*     TA3 = 1.318931e-07
*     TOFFSET = 0.000000e+00
* conductivity:  05-oct-06
*     G = -9.978144e-01
*     H = 1.555200e-01
*     I = -4.839108e-04
*     J = 6.121100e-05
*     CF0 = 2.539936e+03
*     CPCOR = -9.570000e-08
*     CTCOR = 3.250000e-06
*     CSLOPE = 1.000000e+00
* pressure S/N = 2362539, range = 870 psia:  24-aug-06
*     PA0 = 2.171091e-01
*     PA1 = 2.647085e-03
*     PA2 = 1.419397e-11
*     PTCA0 = 5.242437e+05
*     PTCA1 = 7.545345e+00
*     PTCA2 = -1.835354e-01
*     PTCB0 = 2.537125e+01
*     PTCB1 = -1.750000e-03
*     PTCB2 = 0.000000e+00
*     PTEMPA0 = -5.753989e+01
*     PTEMPA1 = 5.235813e+01
*     PTEMPA2 = -4.015521e-02
*     POFFSET = 0.000000e+00
* volt 0: offset = -4.682842e-02, slope = 1.249147e+00
* volt 1: offset = -4.695158e-02, slope = 1.248145e+00
* volt 2: offset = -4.685263e-02, slope = 1.248783e+00
* volt 3: offset = -4.690316e-02, slope = 1.249508e+00
*     EXTFREQSF = 1.000002e+00
* dh
* cast 123 23 Jul 2007 18:26:19 samples 120200 to 121217, avg = 1, stop = mag switch
* S> 
# nquan = 10
# nvalues = 107                         
# units = specified
# name 0 = depSM: Depth [salt water, m]
# name 1 = tv290C: Temperature [ITS-90, deg C]
# name 2 = sal00: Salinity [PSU]
# name 3 = sbeox0Mg/L: Oxygen, SBE 43 [mg/l]
# name 4 = sbeox0PS: Oxygen, SBE 43 [% saturation]
# name 5 = sigma-t00: Density [sigma-t, Kg/m^3 ]
# name 6 = par: PAR/Irradiance, Biospherical/Licor
# name 7 = prdM: Pressure, Strain Gauge [db]
# name 8 = flECO-AFL: Fluorescence, Wetlab ECO-AFL/FL [mg/m^3]
# name 9 = flag: flag
# span 0 =      1.000,     56.000       
# span 1 =     8.9675,    11.0167       
# span 2 =    28.6835,    31.1330       
# span 3 =    8.77668,    9.44666       
# span 4 =   95.48720,  101.21376       
# span 5 =    21.8599,    24.0969       
# span 6 = 1.5313e+00, 8.3748e+01       
# span 7 =      1.068,     56.248       
# span 8 =     0.8597,     1.2464       
# span 9 = 0.0000e+00, 0.0000e+00       
# interval = meters: 1                  
# start_time = Jul 23 2007 18:26:19
# bad_flag = -9.990e-29
# sensor 0 = Frequency 0  temperature, 5061, 05-Oct-06
# sensor 1 = Frequency 1  conductivity, 5061, 05-Oct-06, cpcor = -9.5700e-08
# sensor 2 = Pressure Number
# sensor 3 = Extrnl Volt  0  irradiance (PAR), primary, 4751, 08/10/06
# sensor 4 = Extrnl Volt  1  Oxygen, SBE, primary, 1081, 10/24/06
# sensor 5 = Extrnl Volt  2  WET Labs, ECO_AFL
# sensor 6 = Extrnl Volt  3  userpoly 0, 0627, 10/11/06
# datcnv_date = Oct 15 2007 14:49:51, 5.37e
# datcnv_in = I:\bob d\OTF_GEM\2007\ctd-07123.hex I:\Willette\OTF\CTD\5061.con
# datcnv_skipover = 0
# filter_date = Oct 15 2007 15:02:38, 5.37e
# filter_in = I:\Willette\OTF\CTD\2007\CTD Data\ctd-07123.cnv
# filter_low_pass_tc_A = 1.000
# filter_low_pass_tc_B = 0.150
# filter_low_pass_A_vars = prdM
# filter_low_pass_B_vars =
# loopedit_date = Oct 15 2007 15:06:57, 5.37e
# loopedit_in = I:\Willette\OTF\CTD\2007\CTD Data\ctd-07123.cnv
# loopedit_minVelocity = 0.250                                                                                            
# loopedit_surfaceSoak: minDepth = 5.0, maxDepth = 20, useDeckPress = 1                                                   
# loopedit_excl_bad_scans = yes
# alignctd_date = Oct 15 2007 15:14:23, 5.37e
# alignctd_in = I:\Willette\OTF\CTD\2007\CTD Data\ctd-07123.cnv
# alignctd_adv = tv290C 0.500, sbeox0Mg/L 4.000, sbeox0PS 4.000                                                                                                                                                                      
# binavg_date = Oct 15 2007 15:18:51, 5.37e
# binavg_in = I:\Willette\OTF\CTD\2007\CTD Data\ctd-07123.cnv
# binavg_bintype = meters
# binavg_binsize = 1
# binavg_excl_bad_scans = yes
# binavg_skipover = 0
# binavg_surface_bin = no, min = 0.000, max = 0.000, value = 0.000
# file_type = ascii
*END*
      5.000    10.9678    28.8795    8.77668   95.48720    22.0192 2.7275e+01      5.003     1.0363 0.0000e+00
      6.000    10.9624    28.8865    8.80069   95.57583    22.0258 2.0383e+01      6.207     1.0882 0.0000e+00
      7.000    10.9595    28.8932    8.82994   95.75208    22.0315 1.5827e+01      7.101     1.1175 0.0000e+00
      8.000    10.9235    28.9293    8.87234   96.17783    22.0607 1.2160e+01      7.990     1.1426 0.0000e+00
      9.000    10.7628    29.2013    8.92278   96.71854    22.2903 9.2987e+00      9.098     1.1499 0.0000e+00
     10.000    10.5593    29.6515    8.96078   97.12766    22.6741 7.2779e+00     10.137     1.1113 0.0000e+00
     11.000    10.5114    29.8346    8.99239   97.46697    22.8367 5.8210e+00     11.049     1.0608 0.0000e+00
     12.000    10.5098    29.8412    9.01921   97.74359    22.8439 4.7092e+00     12.059     1.0086 0.0000e+00
     13.000    10.5084    29.8417    9.04424   97.96483    22.8446 3.8864e+00     13.109     1.0183 0.0000e+00
     14.000    10.5059    29.8417    9.05955   98.09906    22.8448 3.2770e+00     14.181     1.0279 0.0000e+00
     15.000    10.4969    29.8465    9.07634   98.27222    22.8494 2.8476e+00     15.136     1.0429 0.0000e+00
     16.000    10.4653    29.8775    9.08909   98.40288    22.8770 2.5171e+00     16.049     1.0110 0.0000e+00
     17.000    10.4369    29.9204    9.10525   98.57198    22.9169 2.2496e+00     17.212     0.9671 0.0000e+00
     18.000    10.4277    29.9379    9.12601   98.79251    22.9322 2.0747e+00     18.159     0.9623 0.0000e+00
     19.000    10.4230    29.9486    9.13498   98.88175    22.9418 1.9347e+00     19.171     0.9528 0.0000e+00
     20.000    10.4190    29.9536    9.14747   99.02610    22.9463 1.8354e+00     20.151     0.9524 0.0000e+00
     21.000    10.4150    29.9584    9.16276   99.22337    22.9506 1.7563e+00     21.313     0.9731 0.0000e+00
     22.000    10.4047    29.9662    9.16693   99.29165    22.9575 1.7043e+00     22.201     0.9747 0.0000e+00
     23.000    10.4030    30.0082    9.17097   99.34872    22.9923 1.6603e+00     23.211     0.9825 0.0000e+00
     24.000    10.4149    30.0140    9.18060   99.46396    22.9947 1.6301e+00     24.328     0.9956 0.0000e+00
     25.000    10.4238    30.0222    9.18683   99.53448    22.9997 1.6085e+00     25.214     1.0272 0.0000e+00
     26.000    10.4285    30.0226    9.19019   99.59440    22.9989 1.5907e+00     26.229     1.0446 0.0000e+00
     27.000    10.4298    30.0335    9.19926   99.72427    23.0070 1.5783e+00     27.270     1.0555 0.0000e+00
     28.000    10.4309    30.0380    9.20535   99.78706    23.0103 1.5694e+00     28.244     1.0660 0.0000e+00
     29.000    10.4369    30.0387    9.21359   99.87170    23.0104 1.5623e+00     29.231     1.0871 0.0000e+00
     30.000    10.4508    30.0604    9.21358   99.85528    23.0252 1.5574e+00     30.284     1.0961 0.0000e+00
     31.000    10.4479    30.0610    9.20980   99.78951    23.0250 1.5535e+00     31.301     1.1385 0.0000e+00
     32.000    10.4432    30.0682    9.21791   99.87566    23.0313 1.5502e+00     32.262     1.1414 0.0000e+00
     33.000    10.4252    30.0888    9.22746   99.97979    23.0492 1.5483e+00     33.357     1.1747 0.0000e+00
     34.000    10.4103    30.1177    9.22805   99.97436    23.0752 1.5466e+00     34.344     1.1691 0.0000e+00
     35.000    10.4104    30.1205    9.23419   99.99239    23.0779 1.5452e+00     35.352     1.1612 0.0000e+00
     36.000    10.4114    30.1187    9.23395   99.98196    23.0763 1.5447e+00     36.321     1.1757 0.0000e+00
     37.000    10.4020    30.1213    9.23655  100.01006    23.0786 1.5442e+00     37.378     1.1642 0.0000e+00
     38.000    10.3694    30.1585    9.23988  100.04138    23.1120 1.5437e+00     38.368     1.1561 0.0000e+00
     39.000    10.3636    30.1752    9.24658  100.13171    23.1279 1.5434e+00     39.364     1.1484 0.0000e+00
     40.000    10.3619    30.1790    9.25704  100.28330    23.1313 1.5427e+00     40.381     1.1640 0.0000e+00
     41.000    10.3556    30.1904    9.26494  100.21786    23.1407 1.5426e+00     41.400     1.1381 0.0000e+00
     42.000    10.3554    30.2090    9.26889   99.74870    23.1563 1.5428e+00     42.450     1.1504 0.0000e+00
     43.000    10.3671    30.2230    9.26523   99.31367    23.1658 1.5424e+00     43.335     1.1296 0.0000e+00
     44.000    10.3340    30.2326    9.27758   99.16106    23.1717 1.5425e+00     44.433     1.1674 0.0000e+00
     45.000    10.0598    30.2951    9.30185   99.23558    23.2486 1.5427e+00     45.493     1.1669 0.0000e+00
     46.000     9.8460    30.4271    9.31274   99.31850    23.3895 1.5423e+00     46.341     1.0767 0.0000e+00
     47.000     9.6595    30.5851    9.33386   99.44387    23.5526 1.5423e+00     47.443     0.9924 0.0000e+00
     48.000     9.5534    30.6736    9.34247   99.37653    23.6409 1.5423e+00     48.437     0.9552 0.0000e+00
     49.000     9.5188    30.7265    9.33917   99.26642    23.6931 1.5423e+00     49.498     0.9409 0.0000e+00
     50.000     9.4632    30.7402    9.34633   99.31035    23.7076 1.5423e+00     50.405     0.9052 0.0000e+00
     51.000     9.3660    30.8212    9.36802   99.24396    23.7877 1.5424e+00     51.494     0.8716 0.0000e+00
     52.000     9.3272    30.8600    9.37502   99.05194    23.8262 1.5422e+00     52.540     0.8647 0.0000e+00
     53.000     9.2986    30.8747    9.40794   99.36061    23.8409 1.5426e+00     53.470     0.8767 0.0000e+00
     54.000     9.0915    30.9614    9.40698   99.34275    23.9292 1.5429e+00     54.447     0.8827 0.0000e+00
     55.000     8.9852    31.1120    9.41023   99.39318    24.0759 1.5313e+00     55.460     0.9598 0.0000e+00
     56.000     8.9675    31.1330    9.43232   99.63746    24.0969 1.5471e+00     56.248     0.9813 0.0000e+00
     55.000     8.9753    31.1259    9.44429   99.99015    24.0899 1.5431e+00     55.487     0.9602 0.0000e+00
     54.000     8.9955    31.1195    9.44666  100.27553    24.0837 1.5424e+00     54.431     0.9211 0.0000e+00
     53.000     9.1369    31.0426    9.43499  100.26730    24.0073 1.5434e+00     53.537     0.9469 0.0000e+00
     52.000     9.2555    30.9323    9.43546  100.39434    23.8990 1.5427e+00     52.481     0.8877 0.0000e+00
     51.000     9.3353    30.8737    9.43458  100.48653    23.8410 1.5422e+00     51.486     0.9120 0.0000e+00
     50.000     9.3977    30.8204    9.42767  100.49399    23.7884 1.5425e+00     50.481     0.9739 0.0000e+00
     49.000     9.4573    30.7779    9.41308  100.41169    23.7462 1.5423e+00     49.455     0.9549 0.0000e+00
     48.000     9.4983    30.7408    9.41018  100.46425    23.7095 1.5424e+00     48.504     0.9152 0.0000e+00
     47.000     9.5469    30.7093    9.40112  100.53165    23.6780 1.5424e+00     47.419     0.9065 0.0000e+00
     46.000     9.5991    30.6770    9.39091  100.66189    23.6456 1.5426e+00     46.489     0.9416 0.0000e+00
     45.000     9.6943    30.6179    9.38073  100.98560    23.5855 1.5426e+00     45.381     0.8844 0.0000e+00
     44.000     9.8573    30.5520    9.36704  101.21376    23.5119 1.5425e+00     44.443     0.9842 0.0000e+00
     43.000    10.0436    30.4516    9.34853  101.18897    23.4042 1.5425e+00     43.453     1.0274 0.0000e+00
     42.000    10.3047    30.2992    9.32910  100.99436    23.2422 1.5423e+00     42.336     1.1647 0.0000e+00
     41.000    10.3394    30.2325    9.31834  100.87373    23.1783 1.5425e+00     41.441     1.1543 0.0000e+00
     40.000    10.3493    30.1955    9.31267  100.81882    23.1460 1.5427e+00     40.270     1.1688 0.0000e+00
     39.000    10.3529    30.1854    9.30656  100.75423    23.1381 1.5428e+00     39.398     1.1106 0.0000e+00
     38.000    10.3568    30.1740    9.30479  100.73776    23.1283 1.5435e+00     38.312     1.0893 0.0000e+00
     37.000    10.3587    30.1732    9.30021  100.72239    23.1275 1.5437e+00     37.343     1.1141 0.0000e+00
     36.000    10.3616    30.1685    9.29408  100.67538    23.1235 1.5437e+00     36.412     1.1322 0.0000e+00
     35.000    10.3903    30.1392    9.29841  100.73425    23.0969 1.5450e+00     35.275     1.0336 0.0000e+00
     34.000    10.3986    30.1266    9.29466  100.69315    23.0851 1.5463e+00     34.393     1.0788 0.0000e+00
     33.000    10.4058    30.1144    9.29199  100.67693    23.0739 1.5478e+00     33.260     1.1692 0.0000e+00
     32.000    10.4067    30.1129    9.28750  100.63167    23.0727 1.5491e+00     32.364     1.1900 0.0000e+00
     31.000    10.4175    30.0992    9.29232  100.70104    23.0604 1.5517e+00     31.190     1.0951 0.0000e+00
     30.000    10.4200    30.0942    9.27987  100.57295    23.0561 1.5547e+00     30.356     1.0692 0.0000e+00
     29.000    10.4328    30.0759    9.27078  100.47852    23.0399 1.5591e+00     29.222     1.1062 0.0000e+00
     28.000    10.4374    30.0674    9.27550  100.52680    23.0322 1.5649e+00     28.303     1.0913 0.0000e+00
     27.000    10.4392    30.0662    9.27915  100.54319    23.0309 1.5724e+00     27.268     1.0938 0.0000e+00
     26.000    10.4367    30.0707    9.28423  100.57248    23.0346 1.5829e+00     26.168     1.0950 0.0000e+00
     25.000    10.4339    30.0569    9.27783  100.47628    23.0242 1.5966e+00     25.324     1.0468 0.0000e+00
     24.000    10.4278    30.0299    9.27733  100.39418    23.0041 1.6155e+00     24.136     1.0389 0.0000e+00
     23.000    10.4187    30.0215    9.27084  100.31226    22.9987 1.6411e+00     23.267     0.9797 0.0000e+00
     22.000    10.3923    30.0013    9.26533  100.24798    22.9870 1.6752e+00     22.184     0.9798 0.0000e+00
     21.000    10.3829    29.9982    9.26671  100.27502    22.9870 1.7207e+00     21.206     0.9229 0.0000e+00
     20.000    10.3825    29.9958    9.26880  100.31486    22.9854 1.7838e+00     20.183     0.9293 0.0000e+00
     19.000    10.3928    29.9841    9.26510  100.28743    22.9752 1.8697e+00     19.222     0.9060 0.0000e+00
     18.000    10.4062    29.9651    9.26529  100.30096    22.9581 1.9848e+00     18.085     0.9970 0.0000e+00
     17.000    10.4128    29.9557    9.25839  100.24194    22.9495 2.1341e+00     17.263     0.9068 0.0000e+00
     16.000    10.4227    29.9424    9.26262  100.32537    22.9376 2.3431e+00     16.060     0.8761 0.0000e+00
     15.000    10.4362    29.9254    9.26097  100.33245    22.9227 2.6253e+00     15.224     0.8597 0.0000e+00
     14.000    10.4620    29.8907    9.26020  100.35223    22.8916 3.0082e+00     14.043     0.9363 0.0000e+00
     13.000    10.4819    29.8641    9.25886  100.33799    22.8673 3.5132e+00     13.116     0.9769 0.0000e+00
     12.000    10.4954    29.8483    9.26305  100.37091    22.8525 4.1763e+00     12.141     0.9636 0.0000e+00
     11.000    10.5032    29.8326    9.26679  100.43104    22.8387 5.0961e+00     11.042     0.9666 0.0000e+00
     10.000    10.5037    29.8224    9.26892  100.54884    22.8304 6.2523e+00     10.125     1.0191 0.0000e+00
      9.000    10.5508    29.7210    9.26345  100.57054    22.7478 7.9154e+00      9.100     1.0575 0.0000e+00
      8.000    10.6730    29.4507    9.25217  100.57847    22.5194 1.0135e+01      8.036     1.0940 0.0000e+00
      7.000    10.7533    29.2730    9.23435  100.45812    22.3659 1.2987e+01      7.114     1.0882 0.0000e+00
      6.000    10.8751    29.0501    9.21172  100.24628    22.1743 1.7015e+01      6.023     1.1356 0.0000e+00
      5.000    10.9478    28.9172    9.20411  100.14631    22.0548 2.2238e+01      5.051     1.1908 0.0000e+00
      4.000    10.9677    28.8784    9.19569  100.04621    22.0193 2.9055e+01      4.051     1.1888 0.0000e+00
      3.000    10.9740    28.8452    9.17983   99.87591    21.9926 3.7430e+01      3.051     1.1517 0.0000e+00
      2.000    10.9979    28.7581    9.14222   99.46400    21.9218 4.6946e+01      2.017     1.2018 0.0000e+00
      1.000    11.0167    28.6835    9.15429   97.99674    21.8599 8.3748e+01      1.068     1.2464 0.0000e+00
