* Sea-Bird SBE19plus Data File:
* FileName = C:\data\otf\2007\ctd-07101.hex
* Software Version 1.55
* Temperature SN =  5061
* Conductivity SN =  5061
* System UpLoad Time = Aug 15 2007 16:33:26
* ds
* SeacatPlus V 1.6a  SERIAL NO. 5061    15 Aug 2007  15:31:53
* vbatt = 10.9, vlith =  8.7, ioper =  61.6 ma, ipump =  57.5 ma, 
* iext01 =  95.2 ma
* iext23 =  58.1 ma
* 
* status = not logging
* number of scans to average = 1
* samples = 153039, free = 288466, casts = 154
* mode = profile, minimum cond freq = 3000, pump delay = 60 sec
* autorun = no, ignore magnetic switch = no
* battery type = alkaline, battery cutoff =  7.3 volts
* pressure sensor = strain gauge, range = 870.0
* SBE 38 = no, Gas Tension Device = no
* Ext Volt 0 = yes, Ext Volt 1 = yes, Ext Volt 2 = yes, Ext Volt 3 = yes
* echo commands = yes
* output format = raw HEX
* S>
* 
* SeacatPlus V 1.6a  SERIAL NO. 5061    15 Aug 2007  15:32:18
* temperature:  05-oct-06
*     TA0 = 1.254184e-03
*     TA1 = 2.596730e-04
*     TA2 = 5.165612e-07
*     TA3 = 1.318931e-07
*     TOFFSET = 0.000000e+00
* conductivity:  05-oct-06
*     G = -9.978144e-01
*     H = 1.555200e-01
*     I = -4.839108e-04
*     J = 6.121100e-05
*     CF0 = 2.539936e+03
*     CPCOR = -9.570000e-08
*     CTCOR = 3.250000e-06
*     CSLOPE = 1.000000e+00
* pressure S/N = 2362539, range = 870 psia:  24-aug-06
*     PA0 = 2.171091e-01
*     PA1 = 2.647085e-03
*     PA2 = 1.419397e-11
*     PTCA0 = 5.242437e+05
*     PTCA1 = 7.545345e+00
*     PTCA2 = -1.835354e-01
*     PTCB0 = 2.537125e+01
*     PTCB1 = -1.750000e-03
*     PTCB2 = 0.000000e+00
*     PTEMPA0 = -5.753989e+01
*     PTEMPA1 = 5.235813e+01
*     PTEMPA2 = -4.015521e-02
*     POFFSET = 0.000000e+00
* volt 0: offset = -4.682842e-02, slope = 1.249147e+00
* volt 1: offset = -4.695158e-02, slope = 1.248145e+00
* volt 2: offset = -4.685263e-02, slope = 1.248783e+00
* volt 3: offset = -4.690316e-02, slope = 1.249508e+00
*     EXTFREQSF = 1.000002e+00
* dh
* cast 101 20 Jul 2007 07:48:13 samples 65851 to 66144, avg = 4, stop = mag switch
* S> 
# nquan = 10
# nvalues = 164                         
# units = specified
# name 0 = depSM: Depth [salt water, m]
# name 1 = tv290C: Temperature [ITS-90, deg C]
# name 2 = sal00: Salinity [PSU]
# name 3 = sbeox0Mg/L: Oxygen, SBE 43 [mg/l]
# name 4 = sbeox0PS: Oxygen, SBE 43 [% saturation]
# name 5 = sigma-t00: Density [sigma-t, Kg/m^3 ]
# name 6 = par: PAR/Irradiance, Biospherical/Licor
# name 7 = prdM: Pressure, Strain Gauge [db]
# name 8 = flECO-AFL: Fluorescence, Wetlab ECO-AFL/FL [mg/m^3]
# name 9 = flag: flag
# span 0 =      1.000,     84.000       
# span 1 =     8.7380,    10.1134       
# span 2 =    30.0986,    31.2864       
# span 3 =    8.88521,   10.93715       
# span 4 =   94.83698,  101.84381       
# span 5 =    23.1095,    24.2512       
# span 6 = 1.5475e+00, 8.7615e+01       
# span 7 =      1.859,     83.298       
# span 8 =     0.6795,     1.7101       
# span 9 = 0.0000e+00, 0.0000e+00       
# interval = meters: 1                  
# start_time = Jul 20 2007 07:48:13
# bad_flag = -9.990e-29
# sensor 0 = Frequency 0  temperature, 5061, 05-Oct-06
# sensor 1 = Frequency 1  conductivity, 5061, 05-Oct-06, cpcor = -9.5700e-08
# sensor 2 = Pressure Number
# sensor 3 = Extrnl Volt  0  irradiance (PAR), primary, 4751, 08/10/06
# sensor 4 = Extrnl Volt  1  Oxygen, SBE, primary, 1081, 10/24/06
# sensor 5 = Extrnl Volt  2  WET Labs, ECO_AFL
# sensor 6 = Extrnl Volt  3  userpoly 0, 0627, 10/11/06
# datcnv_date = Oct 15 2007 14:49:47, 5.37e
# datcnv_in = I:\bob d\OTF_GEM\2007\ctd-07101.hex I:\Willette\OTF\CTD\5061.con
# datcnv_skipover = 0
# filter_date = Oct 15 2007 15:02:29, 5.37e
# filter_in = I:\Willette\OTF\CTD\2007\CTD Data\ctd-07101.cnv
# filter_low_pass_tc_A = 1.000
# filter_low_pass_tc_B = 0.150
# filter_low_pass_A_vars = prdM
# filter_low_pass_B_vars =
# loopedit_date = Oct 15 2007 15:06:50, 5.37e
# loopedit_in = I:\Willette\OTF\CTD\2007\CTD Data\ctd-07101.cnv
# loopedit_minVelocity = 0.250                                                                                            
# loopedit_surfaceSoak: minDepth = 5.0, maxDepth = 20, useDeckPress = 1                                                   
# loopedit_excl_bad_scans = yes
# alignctd_date = Oct 15 2007 15:14:17, 5.37e
# alignctd_in = I:\Willette\OTF\CTD\2007\CTD Data\ctd-07101.cnv
# alignctd_adv = tv290C 0.500, sbeox0Mg/L 4.000, sbeox0PS 4.000                                                                                                                                                                      
# binavg_date = Oct 15 2007 15:18:46, 5.37e
# binavg_in = I:\Willette\OTF\CTD\2007\CTD Data\ctd-07101.cnv
# binavg_bintype = meters
# binavg_binsize = 1
# binavg_excl_bad_scans = yes
# binavg_skipover = 0
# binavg_surface_bin = no, min = 0.000, max = 0.000, value = 0.000
# file_type = ascii
*END*
      4.000    10.0702    30.1291    9.01359   96.39754    23.1356 3.4633e+01      4.890     1.0372 0.0000e+00
      5.000    10.0492    30.1585    8.96155   95.77484    23.1606 2.6198e+01      5.848     0.9949 0.0000e+00
      6.000 -9.990e-29 -9.990e-29 -9.990e-29 -9.990e-29 -9.990e-29 -9.990e-29 -9.990e-29 -9.990e-29 -9.990e-29
      7.000    10.0238    30.2205    8.91790   95.23403    23.2148 1.4622e+01      7.555     1.1446 0.0000e+00
      8.000    10.0010    30.2373    8.88521   94.83698    23.2290 1.1407e+01      8.494     1.3497 0.0000e+00
      9.000     9.9812    30.2731    8.89993   94.95657    23.2601 8.7590e+00      9.411     1.4439 0.0000e+00
     10.000     9.9533    30.3099    8.95788   95.55536    23.2924 6.8326e+00     10.336     1.4703 0.0000e+00
     11.000     9.9186    30.3339    9.01528   96.15643    23.3139 5.4257e+00     11.267     1.5059 0.0000e+00
     12.000     9.8686    30.3632    9.05425   96.55790    23.3412 4.4122e+00     12.217     1.5329 0.0000e+00
     13.000 -9.990e-29 -9.990e-29 -9.990e-29 -9.990e-29 -9.990e-29 -9.990e-29 -9.990e-29 -9.990e-29 -9.990e-29
     14.000     9.7867    30.4099    9.07596   96.74602    23.3859 3.3561e+00     13.631     1.5502 0.0000e+00
     15.000     9.7202    30.5038    9.20930   98.08737    23.4745 2.6657e+00     15.084     1.5847 0.0000e+00
     16.000     9.7244    30.5345    9.27473   98.72859    23.5052 2.4209e+00     15.966     1.6581 0.0000e+00
     17.000     9.7033    30.5555    9.31606   99.13770    23.5260 2.2229e+00     16.968     1.6663 0.0000e+00
     18.000 -9.990e-29 -9.990e-29 -9.990e-29 -9.990e-29 -9.990e-29 -9.990e-29 -9.990e-29 -9.990e-29 -9.990e-29
     19.000     9.6486    30.5783    9.37424   99.69917    23.5490 1.9294e+00     18.818     1.6902 0.0000e+00
     20.000     9.6239    30.5954    9.39626   99.84324    23.5667 1.8409e+00     19.920     1.7101 0.0000e+00
     21.000     9.5977    30.6274    9.41245   99.87110    23.5988 1.7712e+00     20.921     1.7067 0.0000e+00
     22.000     9.5621    30.6433    9.44415  100.03936    23.6150 1.7177e+00     22.290     1.6743 0.0000e+00
     23.000     9.5493    30.6549    9.46914  100.20002    23.6291 1.6792e+00     23.437     1.6538 0.0000e+00
     24.000     9.5405    30.6693    9.48855  100.32652    23.6439 1.6482e+00     24.488     1.6426 0.0000e+00
     25.000     9.5317    30.6692    9.49967  100.38571    23.6446 1.6265e+00     25.424     1.6484 0.0000e+00
     26.000     9.5122    30.6756    9.50844  100.46383    23.6507 1.6086e+00     26.338     1.6348 0.0000e+00
     27.000     9.4746    30.6772    9.52051  100.57944    23.6536 1.5942e+00     27.419     1.5926 0.0000e+00
     28.000     9.4419    30.6833    9.52692  100.64283    23.6615 1.5838e+00     28.283     1.5371 0.0000e+00
     29.000     9.4177    30.7127    9.53876  100.75788    23.6906 1.5762e+00     29.407     1.5470 0.0000e+00
     30.000     9.4017    30.7369    9.54278  100.79798    23.7145 1.5703e+00     30.208     1.5235 0.0000e+00
     31.000     9.3871    30.7526    9.54469  100.80756    23.7297 1.5663e+00     31.243     1.4926 0.0000e+00
     32.000     9.3439    30.7657    9.55260  100.87742    23.7431 1.5626e+00     32.208     1.4928 0.0000e+00
     33.000     9.2670    30.7764    9.55984  100.94026    23.7536 1.5600e+00     33.266     1.4847 0.0000e+00
     34.000     9.1902    30.8184    9.56508  100.98278    23.7953 1.5579e+00     34.401     1.4823 0.0000e+00
     35.000     9.1273    30.8910    9.57283  101.05432    23.8655 1.5561e+00     35.363     1.4761 0.0000e+00
     36.000     9.0928    30.9339    9.58050  101.12234    23.9079 1.5548e+00     36.330     1.4819 0.0000e+00
     37.000     9.0499    30.9810    9.58526  101.13636    23.9556 1.5540e+00     37.424     1.4639 0.0000e+00
     38.000     9.0177    30.9970    9.59481  101.22258    23.9722 1.5533e+00     38.369     1.4678 0.0000e+00
     39.000     9.0130    31.0319    9.59671  101.21866    24.0061 1.5525e+00     39.506     1.4559 0.0000e+00
     40.000     9.0088    31.0469    9.59871  101.22665    24.0205 1.5522e+00     40.435     1.4606 0.0000e+00
     41.000     9.0034    31.0582    9.60135  101.23169    24.0313 1.5518e+00     41.565     1.4694 0.0000e+00
     42.000     9.0001    31.0616    9.60538  101.25313    24.0347 1.5516e+00     42.568     1.4722 0.0000e+00
     43.000     8.9966    31.0649    9.60936  101.28446    24.0379 1.5514e+00     43.471     1.4700 0.0000e+00
     44.000     8.9903    31.0682    9.61281  101.31288    24.0409 1.5511e+00     44.599     1.4657 0.0000e+00
     45.000     8.9821    31.0705    9.61249  101.30289    24.0434 1.5507e+00     45.578     1.4669 0.0000e+00
     46.000     8.9764    31.0746    9.61236  101.27652    24.0474 1.5510e+00     46.453     1.4683 0.0000e+00
     47.000     8.9708    31.0809    9.61550  101.28599    24.0534 1.5508e+00     47.416     1.4679 0.0000e+00
     48.000     8.9639    31.0873    9.61610  101.23683    24.0596 1.5509e+00     48.634     1.4686 0.0000e+00
     49.000     8.9582    31.0912    9.61743  101.21982    24.0635 1.5505e+00     49.475     1.4628 0.0000e+00
     50.000     8.9394    31.0963    9.62747  101.32010    24.0684 1.5505e+00     50.624     1.4624 0.0000e+00
     51.000     8.9321    31.1003    9.63479  101.38971    24.0724 1.5500e+00     51.444     1.4750 0.0000e+00
     52.000     8.9207    31.1130    9.63085  101.34044    24.0847 1.5500e+00     52.409     1.4505 0.0000e+00
     53.000     8.9110    31.1222    9.63018  101.33159    24.0936 1.5500e+00     53.522     1.4681 0.0000e+00
     54.000     8.9046    31.1310    9.63428  101.37930    24.1021 1.5502e+00     54.421     1.4558 0.0000e+00
     55.000     8.8928    31.1378    9.63642  101.39320    24.1087 1.5500e+00     55.404     1.4534 0.0000e+00
     56.000     8.8810    31.1431    9.64389  101.46745    24.1141 1.5500e+00     56.456     1.4440 0.0000e+00
     57.000     8.8764    31.1513    9.64862  101.51741    24.1221 1.5505e+00     57.321     1.4565 0.0000e+00
     58.000     8.8723    31.1612    9.64836  101.51559    24.1318 1.5499e+00     58.440     1.4406 0.0000e+00
     59.000     8.8685    31.1649    9.64954  101.52021    24.1354 1.5499e+00     59.352     1.4593 0.0000e+00
     60.000     8.8501    31.1675    9.64918  101.52092    24.1380 1.5498e+00     60.355     1.4074 0.0000e+00
     61.000     8.8365    31.1710    9.65324  101.56381    24.1413 1.5498e+00     61.323     1.4389 0.0000e+00
     62.000     8.7981    31.1906    9.65660  101.60044    24.1603 1.5504e+00     62.476     1.4072 0.0000e+00
     63.000     8.7884    31.2082    9.65461  101.57545    24.1770 1.5495e+00     63.408     1.4167 0.0000e+00
     64.000     8.7842    31.2334    9.65708  101.58971    24.2010 1.5496e+00     64.466     1.4129 0.0000e+00
     65.000     8.7799    31.2398    9.65301  101.53798    24.2072 1.5497e+00     65.335     1.4121 0.0000e+00
     66.000     8.7782    31.2442    9.65013  101.50314    24.2114 1.5495e+00     66.454     1.3959 0.0000e+00
     67.000     8.7822    31.2493    9.65475  101.53353    24.2163 1.5494e+00     67.616     1.4069 0.0000e+00
     68.000     8.7743    31.2470    9.66364  101.62079    24.2141 1.5496e+00     68.474     1.4045 0.0000e+00
     69.000     8.7736    31.2500    9.66349  101.61690    24.2170 1.5496e+00     69.539     1.3872 0.0000e+00
     70.000     8.7739    31.2521    9.66327  101.61314    24.2191 1.5492e+00     70.457     1.3893 0.0000e+00
     71.000     8.7708    31.2519    9.67158  101.69984    24.2189 1.5494e+00     71.588     1.3926 0.0000e+00
     72.000     8.7722    31.2552    9.67215  101.70714    24.2219 1.5494e+00     72.667     1.3774 0.0000e+00
     73.000     8.7727    31.2521    9.66874  101.67147    24.2192 1.5495e+00     73.760     1.3431 0.0000e+00
     74.000     8.7706    31.2530    9.66997  101.68403    24.2199 1.5493e+00     74.613     1.3551 0.0000e+00
     75.000     8.7630    31.2546    9.66462  101.62864    24.2213 1.5491e+00     75.672     1.3387 0.0000e+00
     76.000     8.7567    31.2549    9.66374  101.61931    24.2217 1.5492e+00     76.611     1.3473 0.0000e+00
     77.000     8.7520    31.2646    9.66723  101.65623    24.2309 1.5493e+00     77.623     1.3523 0.0000e+00
     78.000     8.7443    31.2680    9.66356  101.61905    24.2340 1.5492e+00     78.478     1.3559 0.0000e+00
     79.000     8.7405    31.2750    9.66052  101.58693    24.2405 1.5491e+00     79.313     1.3541 0.0000e+00
     80.000     8.7393    31.2823    9.65891  101.56880    24.2474 1.5489e+00     80.125     1.3541 0.0000e+00
     81.000     8.7381    31.2847    9.66585  101.64216    24.2496 1.5486e+00     81.114     1.3763 0.0000e+00
     82.000     8.7380    31.2856    9.66442  101.62639    24.2504 1.5491e+00     81.673     1.3678 0.0000e+00
     83.000     8.7388    31.2864    9.66401  101.62352    24.2512 1.5489e+00     82.485     1.3839 0.0000e+00
     84.000     8.7388    31.2863    9.65726  101.55407    24.2510 1.5483e+00     83.298     1.3785 0.0000e+00
     83.000     8.7396    31.2861    9.66075  101.59041    24.2508 1.5487e+00     82.938     1.3378 0.0000e+00
     82.000     8.7395    31.2854    9.65565  101.54411    24.2502 1.5484e+00     82.121     1.3773 0.0000e+00
     81.000     8.7389    31.2857    9.66395  101.63750    24.2504 1.5490e+00     81.225     1.2779 0.0000e+00
     80.000     8.7406    31.2848    9.66138  101.64141    24.2497 1.5484e+00     80.530     1.3387 0.0000e+00
     79.000     8.7403    31.2835    9.64963  101.53724    24.2486 1.5482e+00     79.598     1.3611 0.0000e+00
     78.000     8.7395    31.2835    9.64468  101.49878    24.2485 1.5484e+00     78.613     1.3640 0.0000e+00
     77.000     8.7393    31.2846    9.65017  101.56545    24.2495 1.5483e+00     77.760     1.3482 0.0000e+00
     76.000     8.7412    31.2846    9.65315  101.61154    24.2496 1.5481e+00     76.697     1.3274 0.0000e+00
     75.000     8.7442    31.2826    9.65116  101.60438    24.2478 1.5482e+00     75.755     1.3056 0.0000e+00
     74.000     8.7475    31.2793    9.64755  101.56466    24.2447 1.5480e+00     74.766     1.2860 0.0000e+00
     73.000     8.7596    31.2752    9.64532  101.54408    24.2409 1.5482e+00     73.702     1.2824 0.0000e+00
     72.000     8.7830    31.2622    9.64657  101.55942    24.2288 1.5484e+00     72.578     1.2778 0.0000e+00
     71.000     8.7846    31.2466    9.64730  101.57038    24.2139 1.5481e+00     71.751     1.2547 0.0000e+00
     70.000     8.7917    31.2404    9.63771  101.47945    24.2081 1.5479e+00     70.617     1.2905 0.0000e+00
     69.000     8.7996    31.2351    9.63849  101.51271    24.2030 1.5480e+00     69.623     1.2915 0.0000e+00
     68.000     8.8078    31.2279    9.64095  101.57652    24.1962 1.5480e+00     68.637     1.2898 0.0000e+00
     67.000     8.8080    31.2205    9.63772  101.55985    24.1892 1.5480e+00     67.634     1.3101 0.0000e+00
     66.000     8.8093    31.2202    9.62989  101.49106    24.1888 1.5480e+00     66.594     1.3429 0.0000e+00
     65.000     8.8112    31.2201    9.62591  101.46103    24.1888 1.5481e+00     65.654     1.3289 0.0000e+00
     64.000     8.8113    31.2163    9.63344  101.55132    24.1852 1.5477e+00     64.548     1.3062 0.0000e+00
     63.000     8.8167    31.2163    9.63163  101.54715    24.1852 1.5480e+00     63.585     1.3550 0.0000e+00
     62.000     8.8302    31.2133    9.63280  101.57803    24.1823 1.5475e+00     62.548     1.3361 0.0000e+00
     61.000     8.8450    31.2018    9.62607  101.52385    24.1714 1.5479e+00     61.467     1.3637 0.0000e+00
     60.000     8.8628    31.1910    9.62320  101.50202    24.1610 1.5477e+00     60.629     1.3400 0.0000e+00
     59.000     8.8695    31.1706    9.61884  101.48595    24.1415 1.5478e+00     59.417     1.3762 0.0000e+00
     58.000     8.8760    31.1678    9.61968  101.51699    24.1387 1.5477e+00     58.491     1.3807 0.0000e+00
     57.000     8.8818    31.1632    9.61895  101.52505    24.1341 1.5477e+00     57.511     1.3695 0.0000e+00
     56.000     8.8865    31.1586    9.61770  101.52349    24.1297 1.5479e+00     56.631     1.4016 0.0000e+00
     55.000     8.8968    31.1544    9.61489  101.50769    24.1255 1.5478e+00     55.436     1.4102 0.0000e+00
     54.000     8.9063    31.1480    9.62037  101.59043    24.1192 1.5478e+00     54.414     1.4338 0.0000e+00
     53.000     8.9130    31.1422    9.61584  101.55884    24.1135 1.5477e+00     53.591     1.4238 0.0000e+00
     52.000     8.9199    31.1324    9.61043  101.51621    24.1042 1.5479e+00     52.330     1.4572 0.0000e+00
     51.000     8.9336    31.1297    9.61492  101.56714    24.1014 1.5477e+00     51.510     1.4719 0.0000e+00
     50.000     8.9482    31.1193    9.61793  101.60433    24.0914 1.5476e+00     50.473     1.4644 0.0000e+00
     49.000     8.9560    31.1075    9.61248  101.55081    24.0800 1.5479e+00     49.545     1.5076 0.0000e+00
     48.000     8.9636    31.0995    9.60929  101.51965    24.0723 1.5480e+00     48.464     1.4983 0.0000e+00
     47.000     8.9699    31.0936    9.60835  101.51528    24.0665 1.5480e+00     47.487     1.4823 0.0000e+00
     46.000     8.9823    31.0877    9.60254  101.46928    24.0608 1.5476e+00     46.387     1.5370 0.0000e+00
     45.000     8.9947    31.0786    9.60606  101.54099    24.0519 1.5480e+00     45.401     1.4980 0.0000e+00
     44.000     9.0003    31.0701    9.60751  101.62491    24.0436 1.5482e+00     44.499     1.4615 0.0000e+00
     43.000     9.0042    31.0637    9.60688  101.72751    24.0373 1.5483e+00     43.361     1.4365 0.0000e+00
     42.000     9.0069    31.0616    9.60156  101.73431    24.0352 1.5484e+00     42.478     1.4481 0.0000e+00
     41.000     9.0098    31.0588    9.59716  101.73768    24.0326 1.5486e+00     41.370     1.4914 0.0000e+00
     40.000     9.0114    31.0562    9.59022  101.80107    24.0301 1.5490e+00     40.363     1.4287 0.0000e+00
     39.000     9.0153    31.0542    9.58048  101.84381    24.0283 1.5495e+00     39.363     1.4166 0.0000e+00
     38.000     9.0249    31.0503    9.57217  101.81763    24.0248 1.5496e+00     38.308     1.4004 0.0000e+00
     37.000     9.0383    31.0415    9.56142  101.74308    24.0166 1.5509e+00     37.338     1.3840 0.0000e+00
     36.000     9.0805    31.0304    9.54555  101.63304    24.0059 1.5518e+00     36.379     1.3591 0.0000e+00
     35.000     9.1469    31.0029    9.52854  101.54103    23.9781 1.5531e+00     35.144     1.3496 0.0000e+00
     34.000     9.1728    30.9710    9.51730  101.41820    23.9459 1.5545e+00     34.387     1.3431 0.0000e+00
     33.000     9.2002    30.9423    9.50201  101.26915    23.9171 1.5565e+00     33.440     1.3414 0.0000e+00
     32.000     9.2781    30.9176    9.50075  101.28524    23.8930 1.5592e+00     32.356     1.3396 0.0000e+00
     31.000     9.3708    30.8657    9.51293  101.43682    23.8429 1.5627e+00     31.379     1.3085 0.0000e+00
     30.000     9.4024    30.7811    9.50557  101.37365    23.7608 1.5672e+00     30.288     1.2786 0.0000e+00
     29.000     9.4256    30.7593    9.49917  101.35892    23.7392 1.5740e+00     29.341     1.2641 0.0000e+00
     28.000     9.4788    30.7262    9.50524  101.51087    23.7065 1.5825e+00     27.861     1.2454 0.0000e+00
     27.000     9.4912    30.7131    9.49582  101.42724    23.6924 1.5931e+00     27.214     1.2097 0.0000e+00
     26.000     9.5040    30.6969    9.49309  101.42533    23.6760 1.6074e+00     26.338     1.1689 0.0000e+00
     25.000     9.5131    30.6819    9.49197  101.46394    23.6611 1.6271e+00     25.132     1.1274 0.0000e+00
     24.000     9.5337    30.6764    9.49126  101.48770    23.6560 1.6504e+00     24.310     1.1202 0.0000e+00
     23.000     9.5406    30.6597    9.47833  101.38678    23.6400 1.6861e+00     23.222     1.1625 0.0000e+00
     22.000     9.5550    30.6450    9.47796  101.40980    23.6276 1.7323e+00     22.463     1.1019 0.0000e+00
     21.000     9.5876    30.6351    9.47976  101.48282    23.6162 1.7931e+00     21.054     1.0076 0.0000e+00
     20.000     9.6082    30.6310    9.47401  101.44305    23.6098 1.8694e+00     20.342     0.9814 0.0000e+00
     19.000     9.6360    30.6167    9.47587  101.52604    23.5936 1.9628e+00     19.188     0.8681 0.0000e+00
     18.000     9.6533    30.6039    9.47412  101.59532    23.5800 2.0987e+00     18.248     0.7951 0.0000e+00
     17.000     9.6765    30.5914    9.45343  101.46099    23.5672 2.2867e+00     17.254     0.8357 0.0000e+00
     16.000     9.7030    30.5716    9.43887  101.37843    23.5476 2.5144e+00     16.115     1.1148 0.0000e+00
     15.000     9.7239    30.5543    9.42723  101.32449    23.5304 2.8319e+00     15.147     1.2081 0.0000e+00
     14.000     9.7455    30.5395    9.40816  101.15098    23.5155 3.3509e+00     14.145     1.1938 0.0000e+00
     13.000     9.7682    30.5259    9.38667  100.96967    23.5008 3.8075e+00     12.936     1.2352 0.0000e+00
     12.000     9.7995    30.5167    9.36815  100.78710    23.4912 4.5609e+00     12.104     1.2263 0.0000e+00
     11.000     9.8579    30.4862    9.34727  100.58957    23.4617 5.6070e+00     11.025     1.2502 0.0000e+00
     10.000     9.9138    30.4356    9.32693  100.38019    23.4127 7.0378e+00      9.901     1.2239 0.0000e+00
      9.000     9.9455    30.3994    9.29082   99.98495    23.3780 8.9914e+00      9.065     1.0933 0.0000e+00
      8.000    10.0159    30.3470    9.15981   98.53470    23.3296 1.1265e+01      7.759     0.6795 0.0000e+00
      7.000    10.0202    30.2863   10.54377   98.33861    23.2759 1.5070e+01      7.140     1.0807 0.0000e+00
      6.000    10.0505    30.2424   10.93715   98.49624    23.2367 2.0304e+01      6.105     1.2711 0.0000e+00
      5.000    10.0714    30.1960 -9.990e-29 -9.990e-29    23.1960 2.7191e+01      5.127     1.2452 0.0000e+00
      4.000    10.0892    30.1670 -9.990e-29 -9.990e-29    23.1702 3.6517e+01      4.271     1.1807 0.0000e+00
      3.000    10.1063    30.1324 -9.990e-29 -9.990e-29    23.1398 4.7597e+01      3.368     1.1806 0.0000e+00
      2.000    10.1113    30.1104 -9.990e-29 -9.990e-29    23.1202 6.3904e+01      2.574     1.0686 0.0000e+00
      1.000    10.1134    30.0986 -9.990e-29 -9.990e-29    23.1095 8.7615e+01      1.859     1.1535 0.0000e+00
