* Sea-Bird SBE19plus Data File:
* FileName = C:\data\otf\2007\ctd-07007.hex
* Software Version 1.55
* Temperature SN =  5061
* Conductivity SN =  5061
* System UpLoad Time = Aug 15 2007 15:37:10
* ds
* SeacatPlus V 1.6a  SERIAL NO. 5061    15 Aug 2007  15:31:53
* vbatt = 10.9, vlith =  8.7, ioper =  61.6 ma, ipump =  57.5 ma, 
* iext01 =  95.2 ma
* iext23 =  58.1 ma
* 
* status = not logging
* number of scans to average = 1
* samples = 153039, free = 288466, casts = 154
* mode = profile, minimum cond freq = 3000, pump delay = 60 sec
* autorun = no, ignore magnetic switch = no
* battery type = alkaline, battery cutoff =  7.3 volts
* pressure sensor = strain gauge, range = 870.0
* SBE 38 = no, Gas Tension Device = no
* Ext Volt 0 = yes, Ext Volt 1 = yes, Ext Volt 2 = yes, Ext Volt 3 = yes
* echo commands = yes
* output format = raw HEX
* S>
* 
* SeacatPlus V 1.6a  SERIAL NO. 5061    15 Aug 2007  15:32:18
* temperature:  05-oct-06
*     TA0 = 1.254184e-03
*     TA1 = 2.596730e-04
*     TA2 = 5.165612e-07
*     TA3 = 1.318931e-07
*     TOFFSET = 0.000000e+00
* conductivity:  05-oct-06
*     G = -9.978144e-01
*     H = 1.555200e-01
*     I = -4.839108e-04
*     J = 6.121100e-05
*     CF0 = 2.539936e+03
*     CPCOR = -9.570000e-08
*     CTCOR = 3.250000e-06
*     CSLOPE = 1.000000e+00
* pressure S/N = 2362539, range = 870 psia:  24-aug-06
*     PA0 = 2.171091e-01
*     PA1 = 2.647085e-03
*     PA2 = 1.419397e-11
*     PTCA0 = 5.242437e+05
*     PTCA1 = 7.545345e+00
*     PTCA2 = -1.835354e-01
*     PTCB0 = 2.537125e+01
*     PTCB1 = -1.750000e-03
*     PTCB2 = 0.000000e+00
*     PTEMPA0 = -5.753989e+01
*     PTEMPA1 = 5.235813e+01
*     PTEMPA2 = -4.015521e-02
*     POFFSET = 0.000000e+00
* volt 0: offset = -4.682842e-02, slope = 1.249147e+00
* volt 1: offset = -4.695158e-02, slope = 1.248145e+00
* volt 2: offset = -4.685263e-02, slope = 1.248783e+00
* volt 3: offset = -4.690316e-02, slope = 1.249508e+00
*     EXTFREQSF = 1.000002e+00
* dh
* cast   7 03 Jul 2007 12:26:20 samples 5573 to 6901, avg = 1, stop = mag switch
* S> 
# nquan = 10
# nvalues = 139                         
# units = specified
# name 0 = depSM: Depth [salt water, m]
# name 1 = tv290C: Temperature [ITS-90, deg C]
# name 2 = sal00: Salinity [PSU]
# name 3 = sbeox0Mg/L: Oxygen, SBE 43 [mg/l]
# name 4 = sbeox0PS: Oxygen, SBE 43 [% saturation]
# name 5 = sigma-t00: Density [sigma-t, Kg/m^3 ]
# name 6 = par: PAR/Irradiance, Biospherical/Licor
# name 7 = prdM: Pressure, Strain Gauge [db]
# name 8 = flECO-AFL: Fluorescence, Wetlab ECO-AFL/FL [mg/m^3]
# name 9 = flag: flag
# span 0 =      1.000,     72.000       
# span 1 =     7.8484,     8.9018       
# span 2 =    30.4083,    31.5310       
# span 3 =    5.52550,   11.72050       
# span 4 =   57.59500,  122.15319       
# span 5 =    23.5437,    24.5720       
# span 6 = 1.5444e+00, 9.7823e+02       
# span 7 =      1.124,     72.655       
# span 8 =     0.3557,     1.2803       
# span 9 = 0.0000e+00, 0.0000e+00       
# interval = meters: 1                  
# start_time = Jul 03 2007 12:26:20
# bad_flag = -9.990e-29
# sensor 0 = Frequency 0  temperature, 5061, 05-Oct-06
# sensor 1 = Frequency 1  conductivity, 5061, 05-Oct-06, cpcor = -9.5700e-08
# sensor 2 = Pressure Number
# sensor 3 = Extrnl Volt  0  irradiance (PAR), primary, 4751, 08/10/06
# sensor 4 = Extrnl Volt  1  Oxygen, SBE, primary, 1081, 10/24/06
# sensor 5 = Extrnl Volt  2  WET Labs, ECO_AFL
# sensor 6 = Extrnl Volt  3  userpoly 0, 0627, 10/11/06
# datcnv_date = Oct 15 2007 14:49:41, 5.37e
# datcnv_in = I:\bob d\OTF_GEM\2007\ctd-07007.hex I:\Willette\OTF\CTD\5061.con
# datcnv_skipover = 0
# filter_date = Oct 15 2007 15:02:17, 5.37e
# filter_in = I:\Willette\OTF\CTD\2007\CTD Data\ctd-07007.cnv
# filter_low_pass_tc_A = 1.000
# filter_low_pass_tc_B = 0.150
# filter_low_pass_A_vars = prdM
# filter_low_pass_B_vars =
# loopedit_date = Oct 15 2007 15:06:41, 5.37e
# loopedit_in = I:\Willette\OTF\CTD\2007\CTD Data\ctd-07007.cnv
# loopedit_minVelocity = 0.250                                                                                            
# loopedit_surfaceSoak: minDepth = 5.0, maxDepth = 20, useDeckPress = 1                                                   
# loopedit_excl_bad_scans = yes
# alignctd_date = Oct 15 2007 15:14:11, 5.37e
# alignctd_in = I:\Willette\OTF\CTD\2007\CTD Data\ctd-07007.cnv
# alignctd_adv = tv290C 0.500, sbeox0Mg/L 4.000, sbeox0PS 4.000                                                                                                                                                                      
# binavg_date = Oct 15 2007 15:18:40, 5.37e
# binavg_in = I:\Willette\OTF\CTD\2007\CTD Data\ctd-07007.cnv
# binavg_bintype = meters
# binavg_binsize = 1
# binavg_excl_bad_scans = yes
# binavg_skipover = 0
# binavg_surface_bin = no, min = 0.000, max = 0.000, value = 0.000
# file_type = ascii
*END*
      5.000     8.7195    30.5140    9.53682   99.62365    23.6474 1.2782e+02      5.158     0.4859 0.0000e+00
      6.000     8.6949    30.5637    9.65644  100.84676    23.6912 8.8482e+01      6.075     0.4865 0.0000e+00
      7.000     8.6529    30.5580    9.75684  101.87148    23.6912 6.1903e+01      7.041     0.4678 0.0000e+00
      8.000     8.6331    30.5992    9.82977  102.58888    23.7285 4.1866e+01      8.116     0.4919 0.0000e+00
      9.000     8.6152    30.6231    9.86188  102.89319    23.7495 2.9844e+01      9.076     0.4772 0.0000e+00
     10.000     8.5900    30.6277    9.38622   97.89134    23.7558 2.1491e+01     10.085     0.4475 0.0000e+00
     11.000     8.5760    30.6715    5.52550   57.59500    23.7934 1.4959e+01     11.138     0.4809 0.0000e+00
     12.000     8.5517    30.6704   11.72050  122.15319    23.7953 1.1229e+01     12.090     0.4873 0.0000e+00
     13.000     8.5346    30.6934    9.74571  101.51760    23.8163 8.1694e+00     13.153     0.5067 0.0000e+00
     14.000     8.5110    30.7129    9.27294   96.53611    23.8345 6.1846e+00     14.133     0.4985 0.0000e+00
     15.000     8.4871    30.7378    9.34606   97.26199    23.8571 4.7886e+00     15.139     0.4850 0.0000e+00
     16.000     8.4563    30.7654    9.48741   98.69880    23.8834 3.8185e+00     16.163     0.5297 0.0000e+00
     17.000     8.4287    30.7783    9.52174   99.02060    23.8977 3.1462e+00     17.129     0.5628 0.0000e+00
     18.000     8.4085    30.8026    9.61010   99.89051    23.9200 2.6331e+00     18.214     0.5546 0.0000e+00
     19.000     8.3842    30.8293    9.68443  100.61662    23.9441 2.3324e+00     19.121     0.5899 0.0000e+00
     20.000     8.3588    30.8555    9.75884  101.34949    23.9680 2.0874e+00     20.312     0.5893 0.0000e+00
     21.000     8.3232    30.8962    9.78490  101.57194    24.0049 1.9355e+00     21.169     0.5906 0.0000e+00
     22.000     8.3019    30.9249    9.81406  101.81546    24.0314 1.8225e+00     22.307     0.6011 0.0000e+00
     23.000     8.2718    30.9559    9.83914  102.06170    24.0589 1.7440e+00     23.151     0.6264 0.0000e+00
     24.000     8.2363    31.0014    9.87660  102.41808    24.1001 1.6836e+00     24.278     0.7917 0.0000e+00
     25.000     8.2131    31.0301    9.89169  102.55782    24.1265 1.6445e+00     25.245     0.7088 0.0000e+00
     26.000     8.2010    31.0416    9.90593  102.70517    24.1372 1.6171e+00     26.211     0.7346 0.0000e+00
     27.000     8.1821    31.0650    9.92548  102.90518    24.1584 1.5959e+00     27.285     0.7385 0.0000e+00
     28.000     8.1788    31.0748    9.94017  103.05359    24.1674 1.5824e+00     28.255     0.7381 0.0000e+00
     29.000     8.1777    31.0747    9.95152  103.14988    24.1673 1.5726e+00     29.254     0.7675 0.0000e+00
     30.000     8.1767    31.0761    9.95918  103.20139    24.1685 1.5652e+00     30.291     0.7508 0.0000e+00
     31.000     8.1656    31.0853    9.96593  103.25093    24.1767 1.5600e+00     31.304     0.7630 0.0000e+00
     32.000     8.1512    31.1018    9.97369  103.28757    24.1916 1.5673e+00     32.282     0.8308 0.0000e+00
     33.000     8.1333    31.1248    9.99063  103.43581    24.2124 1.5561e+00     33.342     0.7987 0.0000e+00
     34.000     8.1151    31.1412   10.00290  103.54494    24.2269 1.5527e+00     34.295     0.7816 0.0000e+00
     35.000     8.0854    31.1853   10.00644  103.51311    24.2665 1.5516e+00     35.332     0.8208 0.0000e+00
     36.000     8.0772    31.1953   10.00961  103.43329    24.2756 1.5503e+00     36.337     0.8908 0.0000e+00
     37.000     8.0478    31.2238   10.02311  103.55813    24.3007 1.5499e+00     37.400     0.9212 0.0000e+00
     38.000     7.9764    31.3052   10.03616  103.65511    24.3735 1.5497e+00     38.312     0.9519 0.0000e+00
     39.000     7.9486    31.3561   10.06172  103.89657    24.4202 1.5494e+00     39.406     0.9911 0.0000e+00
     40.000     7.9238    31.3886   10.07812  104.06038    24.4478 1.5492e+00     40.341     0.9786 0.0000e+00
     41.000     7.9014    31.4323   10.10197  104.32179    24.4866 1.5486e+00     41.437     1.0845 0.0000e+00
     42.000     7.8953    31.4452   10.10509  104.35032    24.4980 1.5484e+00     42.382     1.1235 0.0000e+00
     43.000     7.9054    31.4314   10.10487  104.35147    24.4864 1.5484e+00     43.402     1.0893 0.0000e+00
     44.000     7.9051    31.4279   10.11517  104.45720    24.4830 1.5482e+00     44.440     1.1669 0.0000e+00
     45.000     7.9053    31.4287   10.11994  104.50494    24.4839 1.5478e+00     45.395     1.0786 0.0000e+00
     46.000     7.9076    31.4236   10.13223  104.63293    24.4794 1.5483e+00     46.475     1.1219 0.0000e+00
     47.000     7.9046    31.4296   10.13432  104.65691    24.4844 1.5480e+00     47.419     1.1026 0.0000e+00
     48.000     7.9060    31.4274   10.13340  104.64484    24.4827 1.5482e+00     48.468     1.0893 0.0000e+00
     49.000     7.9082    31.4233   10.13349  104.64149    24.4792 1.5479e+00     49.452     1.1530 0.0000e+00
     50.000     7.9060    31.4263   10.13639  104.66113    24.4815 1.5479e+00     50.504     1.0465 0.0000e+00
     51.000     7.9018    31.4325   10.14574  104.74096    24.4868 1.5480e+00     51.440     1.1177 0.0000e+00
     52.000     7.8941    31.4472   10.15222  104.79531    24.4995 1.5478e+00     52.497     1.1283 0.0000e+00
     53.000     7.8796    31.4706   10.16551  104.92932    24.5195 1.5478e+00     53.528     1.1329 0.0000e+00
     54.000     7.8702    31.4883   10.16909  104.96766    24.5351 1.5479e+00     54.481     1.0761 0.0000e+00
     55.000     7.8668    31.4965   10.17435  105.02627    24.5424 1.5477e+00     55.570     1.1495 0.0000e+00
     56.000     7.8689    31.4927   10.17247  105.00800    24.5390 1.5481e+00     56.537     1.1695 0.0000e+00
     57.000     7.8723    31.4879   10.17435  105.01074    24.5351 1.5478e+00     57.505     1.2207 0.0000e+00
     58.000     7.8724    31.4838   10.18900  105.16026    24.5313 1.5478e+00     58.602     1.2191 0.0000e+00
     59.000     7.8609    31.5045   10.19166  105.18766    24.5492 1.5479e+00     59.488     1.2114 0.0000e+00
     60.000     7.8580    31.5110   10.18755  105.14796    24.5549 1.5476e+00     60.671     1.1129 0.0000e+00
     61.000     7.8583    31.5107   10.18855  105.15726    24.5547 1.5478e+00     61.567     1.2390 0.0000e+00
     62.000     7.8601    31.5075   10.19621  105.23645    24.5520 1.5479e+00     62.580     1.2703 0.0000e+00
     63.000     7.8591    31.5087   10.20356  105.31207    24.5529 1.5481e+00     63.612     1.2052 0.0000e+00
     64.000     7.8596    31.5083   10.19879  105.26361    24.5526 1.5478e+00     64.590     1.2157 0.0000e+00
     65.000     7.8595    31.5086   10.20195  105.28810    24.5529 1.5479e+00     65.615     1.1379 0.0000e+00
     66.000     7.8573    31.5117   10.20918  105.37104    24.5553 1.5478e+00     66.626     1.1787 0.0000e+00
     67.000     7.8537    31.5211   10.21022  105.38185    24.5636 1.5478e+00     67.634     1.1978 0.0000e+00
     68.000     7.8609    31.5080   10.20956  105.37024    24.5523 1.5475e+00     68.661     1.1747 0.0000e+00
     69.000     7.8579    31.5120   10.21779  105.44714    24.5556 1.5475e+00     69.654     1.1830 0.0000e+00
     70.000     7.8504    31.5259   10.21972  105.46758    24.5675 1.5477e+00     70.677     1.1602 0.0000e+00
     71.000     7.8484    31.5310   10.24564  105.73514    24.5720 1.5478e+00     71.616     1.1675 0.0000e+00
     72.000     7.8490    31.5299   10.21937  105.46255    24.5710 1.5476e+00     72.655     1.1826 0.0000e+00
     71.000     7.8497    31.5303   10.21431  105.41216    24.5714 1.5444e+00     71.511     1.2216 0.0000e+00
     70.000     7.8498    31.5288   10.21910  105.46615    24.5701 1.5445e+00     70.630     1.2596 0.0000e+00
     69.000     7.8497    31.5290   10.22585  105.53692    24.5703 1.5507e+00     69.671     1.1648 0.0000e+00
     68.000     7.8531    31.5229   10.22420  105.52048    24.5651 1.5482e+00     68.646     1.2372 0.0000e+00
     67.000     7.8543    31.5201   10.21577  105.43261    24.5626 1.5470e+00     67.635     1.1522 0.0000e+00
     66.000     7.8543    31.5194   10.22296  105.50537    24.5620 1.5475e+00     66.653     1.1906 0.0000e+00
     65.000     7.8536    31.5206   10.22347  105.51102    24.5631 1.5471e+00     65.621     1.1251 0.0000e+00
     64.000     7.8526    31.5223   10.22320  105.50607    24.5646 1.5470e+00     64.618     1.1675 0.0000e+00
     63.000     7.8534    31.5209   10.22599  105.53712    24.5634 1.5471e+00     63.611     1.2045 0.0000e+00
     62.000     7.8514    31.5242   10.22300  105.51190    24.5662 1.5471e+00     62.594     1.2038 0.0000e+00
     61.000     7.8550    31.5179   10.21804  105.46516    24.5610 1.5470e+00     61.628     1.1787 0.0000e+00
     60.000     7.8608    31.5073   10.21975  105.49000    24.5518 1.5470e+00     60.569     1.1760 0.0000e+00
     59.000     7.8660    31.4978   10.21960  105.49227    24.5437 1.5468e+00     59.583     1.2803 0.0000e+00
     58.000     7.8711    31.4878   10.21677  105.45265    24.5350 1.5469e+00     58.566     1.1188 0.0000e+00
     57.000     7.8652    31.4964   10.22197  105.51049    24.5422 1.5468e+00     57.551     1.0921 0.0000e+00
     56.000     7.8650    31.4995   10.22106  105.50637    24.5451 1.5470e+00     56.549     1.1347 0.0000e+00
     55.000     7.8718    31.4854   10.21727  105.46300    24.5329 1.5468e+00     55.524     1.1196 0.0000e+00
     54.000     7.8676    31.4931   10.21513  105.44585    24.5395 1.5468e+00     54.518     1.1498 0.0000e+00
     53.000     7.8718    31.4856   10.21285  105.42950    24.5332 1.5470e+00     53.500     1.1401 0.0000e+00
     52.000     7.8772    31.4758   10.20844  105.38326    24.5247 1.5470e+00     52.495     1.1192 0.0000e+00
     51.000     7.8770    31.4757   10.20830  105.38728    24.5246 1.5470e+00     51.495     1.1395 0.0000e+00
     50.000     7.8811    31.4692   10.20274  105.33646    24.5190 1.5469e+00     50.482     1.1057 0.0000e+00
     49.000     7.8861    31.4610   10.20089  105.32217    24.5119 1.5469e+00     49.461     1.1132 0.0000e+00
     48.000     7.8903    31.4531   10.19511  105.26183    24.5051 1.5469e+00     48.449     1.0576 0.0000e+00
     47.000     7.8905    31.4526   10.20155  105.32692    24.5045 1.5470e+00     47.452     1.0867 0.0000e+00
     46.000     7.8882    31.4577   10.20647  105.38643    24.5089 1.5470e+00     46.447     1.1469 0.0000e+00
     45.000     7.8940    31.4482   10.19840  105.32370    24.5009 1.5472e+00     45.430     1.1297 0.0000e+00
     44.000     7.9082    31.4240   10.18329  105.18669    24.4801 1.5471e+00     44.413     1.0487 0.0000e+00
     43.000     7.9242    31.3968   10.17403  105.10951    24.4563 1.5469e+00     43.403     1.0269 0.0000e+00
     42.000     7.9362    31.3781   10.16207  104.99926    24.4399 1.5470e+00     42.396     1.0092 0.0000e+00
     41.000     7.9483    31.3630   10.14966  104.86519    24.4264 1.5473e+00     41.398     1.0291 0.0000e+00
     40.000     7.9453    31.3612   10.14086  104.81194    24.4248 1.5475e+00     40.360     1.0404 0.0000e+00
     39.000     7.9591    31.3515   10.14566  104.87942    24.4163 1.5476e+00     39.371     0.9347 0.0000e+00
     38.000     7.9783    31.3232   10.15355  104.99620    24.3906 1.5481e+00     38.363     0.9355 0.0000e+00
     37.000     7.9944    31.3092   10.15091  104.97508    24.3785 1.5484e+00     37.333     0.9688 0.0000e+00
     36.000     8.0020    31.2934   10.14695  104.92690    24.3637 1.5494e+00     36.338     0.9796 0.0000e+00
     35.000     8.0057    31.2881   10.13745  104.98002    24.3590 1.5502e+00     35.333     0.9638 0.0000e+00
     34.000     8.0333    31.2727   10.12308  104.87841    24.3464 1.5517e+00     34.314     1.0033 0.0000e+00
     33.000     8.1192    31.1506   10.11035  104.74853    24.2368 1.5539e+00     33.307     0.8102 0.0000e+00
     32.000     8.1304    31.1294   10.10219  104.69251    24.2172 1.5567e+00     32.325     0.7558 0.0000e+00
     31.000     8.1344    31.1267   10.10516  104.78717    24.2146 1.5606e+00     31.294     0.8043 0.0000e+00
     30.000     8.1613    31.1036   10.09280  104.68740    24.1940 1.5665e+00     30.284     0.7843 0.0000e+00
     29.000     8.1972    31.0573   10.08504  104.61909    24.1518 1.5748e+00     29.272     0.7220 0.0000e+00
     28.000     8.2093    31.0399   10.07639  104.54203    24.1359 1.5853e+00     28.261     0.7627 0.0000e+00
     27.000     8.2175    31.0304   10.07765  104.56040    24.1273 1.5956e+00     27.234     0.7379 0.0000e+00
     26.000     8.2232    31.0221   10.07354  104.52442    24.1198 1.6215e+00     26.251     0.6911 0.0000e+00
     25.000     8.2264    31.0184   10.06965  104.50410    24.1163 1.6538e+00     25.232     0.7044 0.0000e+00
     24.000     8.2310    31.0124   10.06599  104.50666    24.1111 1.6970e+00     24.226     0.7104 0.0000e+00
     23.000     8.2469    30.9997   10.04947  104.36997    24.0998 1.7587e+00     23.188     0.6684 0.0000e+00
     22.000     8.2682    30.9726   10.04438  104.35918    24.0751 1.8456e+00     22.209     0.6697 0.0000e+00
     21.000     8.2892    30.9488   10.03904  104.32775    24.0538 1.9632e+00     21.194     0.6496 0.0000e+00
     20.000     8.3152    30.9160   10.03324  104.32754    24.0242 2.1359e+00     20.214     0.5947 0.0000e+00
     19.000     8.3333    30.8950   10.03008  104.39215    24.0051 2.3833e+00     19.148     0.6172 0.0000e+00
     18.000     8.3697    30.8598   10.02116  104.36716    23.9734 2.7355e+00     18.165     0.5704 0.0000e+00
     17.000     8.4267    30.7939   10.01010  104.28038    23.9138 3.2481e+00     17.152     0.5557 0.0000e+00
     16.000     8.4673    30.7438    9.99486  104.14708    23.8677 3.9664e+00     16.152     0.5416 0.0000e+00
     15.000     8.4859    30.7218    9.98918  104.12635    23.8471 5.0084e+00     15.140     0.5062 0.0000e+00
     14.000     8.4984    30.7105   10.02919  104.57267    23.8365 6.5180e+00     14.101     0.5035 0.0000e+00
     13.000     8.5210    30.6872    9.97284  104.00689    23.8153 8.7795e+00     13.139     0.5531 0.0000e+00
     12.000     8.5409    30.6617    9.95720  103.87169    23.7920 1.1956e+01     12.082     0.4964 0.0000e+00
     11.000     8.5546    30.6463    9.96171  103.94197    23.7778 1.6677e+01     11.093     0.4754 0.0000e+00
     10.000     8.5699    30.6296    9.95609  103.90025    23.7627 2.3722e+01     10.105     0.4606 0.0000e+00
      9.000     8.5850    30.6113    9.94925  103.86040    23.7462 3.3703e+01      9.060     0.4673 0.0000e+00
      8.000     8.5989    30.5919    9.94048  103.81416    23.7287 4.8619e+01      8.078     0.4611 0.0000e+00
      7.000     8.6131    30.5757    9.92974  103.74893    23.7145 7.0792e+01      7.099     0.4601 0.0000e+00
      6.000     8.6370    30.5500    9.92374  103.72082    23.6911 1.0247e+02      6.043     0.4856 0.0000e+00
      5.000     8.6695    30.5190    9.84448  102.95706    23.6623 1.4809e+02      5.055     0.5078 0.0000e+00
      4.000     8.6921    30.4915    9.67979  101.45467    23.6368 2.1389e+02      4.045     0.5514 0.0000e+00
      3.000     8.7176    30.4688    9.85157  103.04916    23.6160 3.0847e+02      3.034     0.5414 0.0000e+00
      2.000     8.7976    30.4376    9.75458   93.40930    23.5833 4.5330e+02      2.044     0.4122 0.0000e+00
      1.000     8.9018    30.4083   10.66095  101.86697    23.5437 9.7823e+02      1.124     0.3557 0.0000e+00
