* Sea-Bird SBE19plus Data File:
* FileName = C:\data\otf\2007\ctd-07059.hex
* Software Version 1.55
* Temperature SN =  5061
* Conductivity SN =  5061
* System UpLoad Time = Aug 15 2007 16:13:16
* ds
* SeacatPlus V 1.6a  SERIAL NO. 5061    15 Aug 2007  15:31:53
* vbatt = 10.9, vlith =  8.7, ioper =  61.6 ma, ipump =  57.5 ma, 
* iext01 =  95.2 ma
* iext23 =  58.1 ma
* 
* status = not logging
* number of scans to average = 1
* samples = 153039, free = 288466, casts = 154
* mode = profile, minimum cond freq = 3000, pump delay = 60 sec
* autorun = no, ignore magnetic switch = no
* battery type = alkaline, battery cutoff =  7.3 volts
* pressure sensor = strain gauge, range = 870.0
* SBE 38 = no, Gas Tension Device = no
* Ext Volt 0 = yes, Ext Volt 1 = yes, Ext Volt 2 = yes, Ext Volt 3 = yes
* echo commands = yes
* output format = raw HEX
* S>
* 
* SeacatPlus V 1.6a  SERIAL NO. 5061    15 Aug 2007  15:32:18
* temperature:  05-oct-06
*     TA0 = 1.254184e-03
*     TA1 = 2.596730e-04
*     TA2 = 5.165612e-07
*     TA3 = 1.318931e-07
*     TOFFSET = 0.000000e+00
* conductivity:  05-oct-06
*     G = -9.978144e-01
*     H = 1.555200e-01
*     I = -4.839108e-04
*     J = 6.121100e-05
*     CF0 = 2.539936e+03
*     CPCOR = -9.570000e-08
*     CTCOR = 3.250000e-06
*     CSLOPE = 1.000000e+00
* pressure S/N = 2362539, range = 870 psia:  24-aug-06
*     PA0 = 2.171091e-01
*     PA1 = 2.647085e-03
*     PA2 = 1.419397e-11
*     PTCA0 = 5.242437e+05
*     PTCA1 = 7.545345e+00
*     PTCA2 = -1.835354e-01
*     PTCB0 = 2.537125e+01
*     PTCB1 = -1.750000e-03
*     PTCB2 = 0.000000e+00
*     PTEMPA0 = -5.753989e+01
*     PTEMPA1 = 5.235813e+01
*     PTEMPA2 = -4.015521e-02
*     POFFSET = 0.000000e+00
* volt 0: offset = -4.682842e-02, slope = 1.249147e+00
* volt 1: offset = -4.695158e-02, slope = 1.248145e+00
* volt 2: offset = -4.685263e-02, slope = 1.248783e+00
* volt 3: offset = -4.690316e-02, slope = 1.249508e+00
*     EXTFREQSF = 1.000002e+00
* dh
* cast  59 12 Jul 2007 07:17:50 samples 45293 to 45631, avg = 4, stop = mag switch
* S> 
# nquan = 10
# nvalues = 149                         
# units = specified
# name 0 = depSM: Depth [salt water, m]
# name 1 = tv290C: Temperature [ITS-90, deg C]
# name 2 = sal00: Salinity [PSU]
# name 3 = sbeox0Mg/L: Oxygen, SBE 43 [mg/l]
# name 4 = sbeox0PS: Oxygen, SBE 43 [% saturation]
# name 5 = sigma-t00: Density [sigma-t, Kg/m^3 ]
# name 6 = par: PAR/Irradiance, Biospherical/Licor
# name 7 = prdM: Pressure, Strain Gauge [db]
# name 8 = flECO-AFL: Fluorescence, Wetlab ECO-AFL/FL [mg/m^3]
# name 9 = flag: flag
# span 0 =      1.000,     77.000       
# span 1 =     8.0574,     9.6549       
# span 2 =    30.1055,    31.5505       
# span 3 =    8.86117,    9.93327       
# span 4 =   93.23673,  103.02879       
# span 5 =    23.1886,    24.5577       
# span 6 = 1.5478e+00, 9.0066e+01       
# span 7 =      1.933,     75.789       
# span 8 =     0.3930,     0.7266       
# span 9 = 0.0000e+00, 0.0000e+00       
# interval = meters: 1                  
# start_time = Jul 12 2007 07:17:50
# bad_flag = -9.990e-29
# sensor 0 = Frequency 0  temperature, 5061, 05-Oct-06
# sensor 1 = Frequency 1  conductivity, 5061, 05-Oct-06, cpcor = -9.5700e-08
# sensor 2 = Pressure Number
# sensor 3 = Extrnl Volt  0  irradiance (PAR), primary, 4751, 08/10/06
# sensor 4 = Extrnl Volt  1  Oxygen, SBE, primary, 1081, 10/24/06
# sensor 5 = Extrnl Volt  2  WET Labs, ECO_AFL
# sensor 6 = Extrnl Volt  3  userpoly 0, 0627, 10/11/06
# datcnv_date = Oct 15 2007 14:49:45, 5.37e
# datcnv_in = I:\bob d\OTF_GEM\2007\ctd-07059.hex I:\Willette\OTF\CTD\5061.con
# datcnv_skipover = 0
# filter_date = Oct 15 2007 15:02:25, 5.37e
# filter_in = I:\Willette\OTF\CTD\2007\CTD Data\ctd-07059.cnv
# filter_low_pass_tc_A = 1.000
# filter_low_pass_tc_B = 0.150
# filter_low_pass_A_vars = prdM
# filter_low_pass_B_vars =
# loopedit_date = Oct 15 2007 15:06:47, 5.37e
# loopedit_in = I:\Willette\OTF\CTD\2007\CTD Data\ctd-07059.cnv
# loopedit_minVelocity = 0.250                                                                                            
# loopedit_surfaceSoak: minDepth = 5.0, maxDepth = 20, useDeckPress = 1                                                   
# loopedit_excl_bad_scans = yes
# alignctd_date = Oct 15 2007 15:14:15, 5.37e
# alignctd_in = I:\Willette\OTF\CTD\2007\CTD Data\ctd-07059.cnv
# alignctd_adv = tv290C 0.500, sbeox0Mg/L 4.000, sbeox0PS 4.000                                                                                                                                                                      
# binavg_date = Oct 15 2007 15:18:44, 5.37e
# binavg_in = I:\Willette\OTF\CTD\2007\CTD Data\ctd-07059.cnv
# binavg_bintype = meters
# binavg_binsize = 1
# binavg_excl_bad_scans = yes
# binavg_skipover = 0
# binavg_surface_bin = no, min = 0.000, max = 0.000, value = 0.000
# file_type = ascii
*END*
      5.000     9.6549    30.1164    8.86117   93.23673    23.1974 1.9464e+01      5.303     0.6769 0.0000e+00
      6.000     9.6270    30.1254    8.99568   94.34365    23.2032 1.4075e+01      6.402     0.6540 0.0000e+00
      7.000     9.5931    30.1359    9.06230   94.81519    23.2153 1.0721e+01      7.564     0.6297 0.0000e+00
      8.000     9.5582    30.1462    9.11013   95.10234    23.2274 8.2636e+00      8.653     0.6136 0.0000e+00
      9.000     9.5214    30.1658    9.23230   96.27919    23.2472 6.4212e+00      9.568     0.5851 0.0000e+00
     10.000     9.4789    30.1842    9.36975   97.69006    23.2659 5.0565e+00     10.532     0.5569 0.0000e+00
     11.000     9.3269    30.2206    9.47779   98.73783    23.3017 3.9778e+00     11.706     0.5539 0.0000e+00
     12.000     9.2864    30.2215    9.51800   99.06972    23.3074 3.3724e+00     12.471     0.5160 0.0000e+00
     13.000     9.1580    30.3250    9.55214   99.43055    23.4068 2.9208e+00     13.457     0.4805 0.0000e+00
     14.000 -9.990e-29 -9.990e-29 -9.990e-29 -9.990e-29 -9.990e-29 -9.990e-29 -9.990e-29 -9.990e-29 -9.990e-29
     15.000     8.9916    30.5177    9.61780  100.11770    23.5873 2.3167e+00     15.341     0.4424 0.0000e+00
     16.000     8.9159    30.6061    9.63799  100.33626    23.6686 2.1491e+00     16.285     0.4576 0.0000e+00
     17.000 -9.990e-29 -9.990e-29 -9.990e-29 -9.990e-29 -9.990e-29 -9.990e-29 -9.990e-29 -9.990e-29 -9.990e-29
     18.000     8.7455    30.7419    9.66540  100.61896    23.7933 1.9345e+00     17.707     0.4675 0.0000e+00
     19.000     8.5955    30.8414    9.68817  100.83997    23.8849 1.8173e+00     18.916     0.4734 0.0000e+00
     20.000     8.5379    31.0067    9.70901  101.04849    24.0383 1.7579e+00     19.928     0.4607 0.0000e+00
     21.000     8.4831    31.0787    9.71663  101.08628    24.1082 1.7190e+00     20.680     0.4637 0.0000e+00
     22.000     8.3973    31.1516    9.73074  101.13896    24.1754 1.6855e+00     21.708     0.4110 0.0000e+00
     23.000     8.3673    31.2414    9.74965  101.26617    24.2630 1.6590e+00     22.925     0.4257 0.0000e+00
     24.000     8.3192    31.2892    9.77489  101.51156    24.3094 1.6384e+00     24.221     0.4446 0.0000e+00
     25.000     8.2716    31.3011    9.78937  101.67372    24.3205 1.6229e+00     25.203     0.3964 0.0000e+00
     26.000     8.2694    31.3554    9.80055  101.78878    24.3720 1.6098e+00     26.270     0.3930 0.0000e+00
     27.000     8.2713    31.3710    9.80979  101.84635    24.3869 1.5979e+00     27.284     0.4242 0.0000e+00
     28.000     8.2768    31.3666    9.81197  101.87840    24.3829 1.5896e+00     28.348     0.4067 0.0000e+00
     29.000     8.2761    31.3632    9.82190  101.98585    24.3798 1.5827e+00     29.300     0.4175 0.0000e+00
     30.000     8.2689    31.3572    9.82938  102.03737    24.3742 1.5769e+00     30.327     0.3939 0.0000e+00
     31.000     8.2619    31.3605    9.83780  102.10350    24.3775 1.5725e+00     31.410     0.4015 0.0000e+00
     32.000     8.2218    31.3684    9.83885  102.11643    24.3848 1.5687e+00     32.326     0.4007 0.0000e+00
     33.000     8.1728    31.3866    9.84810  102.21256    24.4017 1.5655e+00     33.300     0.4071 0.0000e+00
     34.000     8.1417    31.4244    9.85560  102.29119    24.4371 1.5626e+00     34.245     0.4195 0.0000e+00
     35.000     8.1337    31.4703    9.86616  102.40667    24.4802 1.5606e+00     35.206     0.4171 0.0000e+00
     36.000     8.1359    31.4861    9.85869  102.32536    24.4952 1.5590e+00     35.911     0.4211 0.0000e+00
     37.000     8.1396    31.4920    9.86481  102.38642    24.5008 1.5575e+00     36.762     0.4127 0.0000e+00
     38.000     8.1388    31.4895    9.86773  102.41744    24.4985 1.5564e+00     37.506     0.3999 0.0000e+00
     39.000     8.1183    31.4867    9.86766  102.41670    24.4959 1.5552e+00     38.653     0.4029 0.0000e+00
     40.000     8.1251    31.5015    9.87553  102.49745    24.5100 1.5546e+00     39.639     0.3958 0.0000e+00
     41.000     8.1108    31.4974    9.87948  102.53958    24.5062 1.5540e+00     40.491     0.4012 0.0000e+00
     42.000     8.0983    31.5151    9.87956  102.56328    24.5229 1.5532e+00     41.647     0.4110 0.0000e+00
     43.000     8.0985    31.5195    9.88115  102.55597    24.5274 1.5525e+00     42.741     0.4026 0.0000e+00
     44.000     8.0893    31.5238    9.91974  102.91150    24.5317 1.5511e+00     44.642     0.4055 0.0000e+00
     45.000     8.0887    31.5242    9.92041  102.92169    24.5322 1.5510e+00     45.482     0.4154 0.0000e+00
     46.000     8.0915    31.5257    9.91926  102.91116    24.5336 1.5507e+00     46.259     0.4085 0.0000e+00
     47.000     8.0891    31.5266    9.92086  102.92724    24.5344 1.5504e+00     47.131     0.3956 0.0000e+00
     48.000     8.0862    31.5238    9.92243  102.94264    24.5318 1.5502e+00     47.985     0.4313 0.0000e+00
     49.000     8.0866    31.5266    9.92041  102.92356    24.5346 1.5500e+00     48.931     0.4164 0.0000e+00
     50.000     8.0843    31.5287    9.92804  103.00122    24.5364 1.5501e+00     50.132     0.4299 0.0000e+00
     51.000     8.0734    31.5294    9.93082  103.02879    24.5372 1.5500e+00     51.346     0.4267 0.0000e+00
     52.000     8.0707    31.5337    9.92513  102.97223    24.5415 1.5495e+00     52.348     0.4227 0.0000e+00
     53.000     8.0703    31.5386    9.92564  102.96998    24.5463 1.5496e+00     53.442     0.4306 0.0000e+00
     54.000     8.0723    31.5405    9.92400  102.95464    24.5482 1.5494e+00     54.551     0.4250 0.0000e+00
     55.000     8.0760    31.5389    9.92571  102.96353    24.5465 1.5490e+00     55.582     0.4407 0.0000e+00
     56.000     8.0784    31.5378    9.92381  102.93048    24.5453 1.5492e+00     56.567     0.4182 0.0000e+00
     57.000     8.0779    31.5346    9.91984  102.90581    24.5423 1.5491e+00     57.569     0.4003 0.0000e+00
     58.000     8.0784    31.5343    9.92357  102.93370    24.5420 1.5492e+00     58.602     0.4043 0.0000e+00
     59.000     8.0780    31.5348    9.93253  103.01389    24.5424 1.5492e+00     59.651     0.4115 0.0000e+00
     60.000     8.0774    31.5341    9.93327  103.01904    24.5418 1.5494e+00     60.575     0.4054 0.0000e+00
     61.000     8.0792    31.5356    9.92747  102.95892    24.5432 1.5494e+00     61.564     0.4141 0.0000e+00
     62.000     8.0766    31.5346    9.92486  102.93086    24.5423 1.5489e+00     62.454     0.4182 0.0000e+00
     63.000     8.0727    31.5353    9.93262  103.01107    24.5429 1.5485e+00     63.638     0.4187 0.0000e+00
     64.000     8.0763    31.5374    9.92116  102.89181    24.5450 1.5487e+00     64.617     0.4373 0.0000e+00
     65.000     8.0648    31.5376    9.91910  102.87141    24.5450 1.5487e+00     65.551     0.4184 0.0000e+00
     66.000     8.0622    31.5325    9.92274  102.90931    24.5405 1.5493e+00     66.632     0.4164 0.0000e+00
     67.000     8.0739    31.5466    9.92978  102.98202    24.5540 1.5488e+00     67.406     0.4498 0.0000e+00
     68.000     8.0650    31.5390    9.92651  102.94869    24.5465 1.5487e+00     68.422     0.4006 0.0000e+00
     69.000     8.0581    31.5405    9.91666  102.84563    24.5480 1.5484e+00     69.370     0.4236 0.0000e+00
     70.000     8.0582    31.5483    9.92169  102.89895    24.5556 1.5489e+00     70.358     0.4332 0.0000e+00
     71.000     8.0575    31.5498    9.92287  102.91150    24.5570 1.5487e+00     71.228     0.4464 0.0000e+00
     72.000     8.0577    31.5500    9.91610  102.84175    24.5572 1.5486e+00     72.320     0.4365 0.0000e+00
     73.000     8.0575    31.5502    9.92238  102.90790    24.5574 1.5486e+00     73.306     0.4515 0.0000e+00
     74.000     8.0578    31.5502    9.92300  102.91556    24.5574 1.5488e+00     74.281     0.4548 0.0000e+00
     75.000     8.0577    31.5500    9.91689  102.85066    24.5572 1.5485e+00     75.104     0.4374 0.0000e+00
     76.000     8.0574    31.5505    9.91021  102.78038    24.5577 1.5485e+00     75.693     0.4433 0.0000e+00
     77.000     8.0585    31.5505    9.91816  102.86562    24.5574 1.5489e+00     75.789     0.5116 0.0000e+00
     76.000     8.0585    31.5505    9.91147  102.79761    24.5576 1.5482e+00     75.146     0.4959 0.0000e+00
     75.000     8.0587    31.5502    9.90927  102.77890    24.5573 1.5484e+00     74.660     0.4798 0.0000e+00
     74.000     8.0595    31.5502    9.91410  102.83273    24.5573 1.5486e+00     73.957     0.4898 0.0000e+00
     73.000     8.0597    31.5498    9.91343  102.83819    24.5569 1.5482e+00     73.240     0.4834 0.0000e+00
     72.000     8.0592    31.5494    9.91369  102.85421    24.5565 1.5486e+00     72.503     0.4632 0.0000e+00
     71.000     8.0588    31.5487    9.90651  102.78638    24.5560 1.5488e+00     71.660     0.4641 0.0000e+00
     70.000     8.0585    31.5494    9.89893  102.70981    24.5566 1.5483e+00     70.828     0.4872 0.0000e+00
     69.000     8.0584    31.5497    9.89524  102.68048    24.5569 1.5483e+00     69.694     0.4628 0.0000e+00
     68.000     8.0593    31.5497    9.90344  102.74270    24.5570 1.5480e+00     68.757     0.4728 0.0000e+00
     67.000     8.0596    31.5489    9.90603  102.77292    24.5562 1.5485e+00     67.713     0.4778 0.0000e+00
     66.000     8.0608    31.5486    9.90594  102.76717    24.5559 1.5483e+00     66.881     0.4883 0.0000e+00
     65.000     8.0630    31.5482    9.90700  102.77582    24.5554 1.5482e+00     65.849     0.4756 0.0000e+00
     64.000     8.0703    31.5459    9.91177  102.82331    24.5534 1.5480e+00     64.788     0.4669 0.0000e+00
     63.000     8.0814    31.5403    9.90887  102.79017    24.5478 1.5481e+00     63.632     0.4449 0.0000e+00
     62.000     8.0835    31.5327    9.89536  102.65081    24.5404 1.5481e+00     62.638     0.4436 0.0000e+00
     61.000     8.0840    31.5303    9.88616  102.56003    24.5382 1.5481e+00     61.599     0.4467 0.0000e+00
     60.000     8.0766    31.5296    9.88760  102.59379    24.5375 1.5481e+00     60.512     0.4361 0.0000e+00
     59.000     8.0764    31.5352    9.89749  102.71568    24.5429 1.5481e+00     59.506     0.4386 0.0000e+00
     58.000     8.0745    31.5353    9.89235  102.66354    24.5431 1.5482e+00     58.536     0.4523 0.0000e+00
     57.000     8.0738    31.5368    9.88510  102.59112    24.5445 1.5481e+00     57.658     0.4375 0.0000e+00
     56.000     8.0717    31.5370    9.87209  102.45686    24.5448 1.5478e+00     56.506     0.4296 0.0000e+00
     55.000     8.0714    31.5385    9.87859  102.52775    24.5462 1.5481e+00     55.548     0.4436 0.0000e+00
     54.000     8.0730    31.5386    9.87664  102.51086    24.5464 1.5480e+00     54.607     0.4295 0.0000e+00
     53.000     8.0787    31.5374    9.87096  102.45264    24.5452 1.5480e+00     53.528     0.4223 0.0000e+00
     52.000     8.0910    31.5336    9.86532  102.39952    24.5415 1.5484e+00     52.584     0.4287 0.0000e+00
     51.000     8.0961    31.5238    9.87082  102.45531    24.5320 1.5480e+00     51.604     0.4350 0.0000e+00
     50.000     8.0970    31.5191    9.87268  102.47390    24.5275 1.5480e+00     50.576     0.4355 0.0000e+00
     49.000     8.0979    31.5187    9.88325  102.58557    24.5271 1.5481e+00     49.509     0.4067 0.0000e+00
     48.000     8.0999    31.5179    9.86847  102.44258    24.5264 1.5482e+00     48.481     0.3964 0.0000e+00
     47.000     8.1015    31.5161    9.87908  102.56877    24.5246 1.5484e+00     47.483     0.4156 0.0000e+00
     46.000     8.1033    31.5153    9.86426  102.41138    24.5238 1.5489e+00     46.457     0.4296 0.0000e+00
     45.000     8.1050    31.5133    9.85415  102.31010    24.5220 1.5490e+00     45.471     0.4130 0.0000e+00
     44.000     8.1047    31.5122    9.85211  102.28706    24.5208 1.5493e+00     44.531     0.4254 0.0000e+00
     43.000     8.1044    31.5128    9.85000  102.27533    24.5214 1.5496e+00     43.488     0.4156 0.0000e+00
     42.000     8.1097    31.5115    9.85911  102.37935    24.5203 1.5501e+00     42.416     0.4492 0.0000e+00
     41.000     8.1199    31.5069    9.87229  102.52595    24.5159 1.5504e+00     41.499     0.4085 0.0000e+00
     40.000     8.1188    31.4976    9.86484  102.45681    24.5071 1.5508e+00     40.392     0.4356 0.0000e+00
     39.000     8.1210    31.4997    9.86769  102.49072    24.5092 1.5518e+00     39.328     0.4258 0.0000e+00
     38.000     8.1207    31.4973    9.86843  102.51450    24.5069 1.5524e+00     38.332     0.4167 0.0000e+00
     37.000     8.1269    31.4965    9.86343  102.46132    24.5062 1.5532e+00     37.368     0.4229 0.0000e+00
     36.000     8.1322    31.4905    9.85685  102.42050    24.5006 1.5545e+00     36.336     0.4228 0.0000e+00
     35.000     8.1386    31.4857    9.84440  102.30628    24.4960 1.5560e+00     35.344     0.4051 0.0000e+00
     34.000     8.1414    31.4787    9.84208  102.31578    24.4896 1.5580e+00     34.285     0.4162 0.0000e+00
     33.000     8.1463    31.4771    9.84072  102.33264    24.4880 1.5602e+00     33.329     0.4265 0.0000e+00
     32.000     8.1532    31.4714    9.83548  102.24097    24.4828 1.5628e+00     32.325     0.4053 0.0000e+00
     31.000     8.1520    31.4649    9.82829  102.17099    24.4765 1.5658e+00     31.198     0.4125 0.0000e+00
     30.000     8.1700    31.4654    9.82775  102.27442    24.4771 1.5702e+00     30.365     0.4330 0.0000e+00
     29.000     8.1775    31.4469    9.82207  102.21461    24.4597 1.5746e+00     29.451     0.4044 0.0000e+00
     28.000     8.2041    31.4386    9.82044  102.38728    24.4520 1.5810e+00     28.326     0.4076 0.0000e+00
     27.000     8.2089    31.4133    9.80465  102.30661    24.4283 1.5892e+00     27.374     0.4050 0.0000e+00
     26.000     8.1919    31.4248    9.78230  102.29915    24.4389 1.5981e+00     26.283     0.4115 0.0000e+00
     25.000     8.2579    31.4064    9.76578  102.54034    24.4220 1.6103e+00     25.174     0.4565 0.0000e+00
     24.000     8.2864    31.3687    9.72518  102.36334    24.3864 1.6243e+00     24.060     0.4163 0.0000e+00
     23.000     8.3890    31.3145    9.71118  102.33794    24.3362 1.6415e+00     22.994     0.4163 0.0000e+00
     22.000     8.4269    31.2388    9.69629  102.34068    24.2650 1.6626e+00     22.039     0.4051 0.0000e+00
     21.000     8.5335    31.2025    9.67850  102.31435    24.2309 1.6939e+00     20.939     0.4124 0.0000e+00
     20.000     8.6884    31.0956    9.65813  102.23020    24.1317 1.7310e+00     19.950     0.4170 0.0000e+00
     19.000     8.8337    30.9583    9.65445  102.38053    24.0037 1.7772e+00     19.013     0.4341 0.0000e+00
     18.000     8.9398    30.7950    9.64107  102.37046    23.8509 1.8470e+00     17.880     0.4719 0.0000e+00
     17.000     8.9836    30.7091    9.63062  102.34869    23.7714 1.9423e+00     16.909     0.5126 0.0000e+00
     16.000     9.0369    30.6576    9.61872  102.26168    23.7242 2.0563e+00     15.960     0.5158 0.0000e+00
     15.000     9.1012    30.5969    9.60783  102.20742    23.6692 2.2132e+00     15.003     0.4718 0.0000e+00
     14.000     9.1722    30.5305    9.59250  102.07548    23.6083 2.4365e+00     14.051     0.4847 0.0000e+00
     13.000     9.2248    30.4614    9.57337  101.92450    23.5434 2.7510e+00     13.042     0.4985 0.0000e+00
     12.000     9.2654    30.4189    9.56009  101.80624    23.5029 3.1795e+00     12.202     0.4641 0.0000e+00
     11.000     9.3689    30.3561    9.55225  101.76726    23.4426 3.7019e+00     10.900     0.5144 0.0000e+00
     10.000     9.4191    30.3340    9.54646  101.69153    23.4207 4.5556e+00     10.395     0.4959 0.0000e+00
      9.000     9.4765    30.2531    9.53576  101.58063    23.3403 5.8065e+00      9.211     0.5217 0.0000e+00
      8.000     9.5238    30.2217    9.45613  100.68986    23.3078 7.5223e+00      8.216     0.5764 0.0000e+00
      7.000     9.5435    30.1838    9.40425   99.92443    23.2693 9.8220e+00      7.224     0.5987 0.0000e+00
      6.000     9.5854    30.1706 -9.990e-29 -9.990e-29    23.2561 1.3329e+01      6.203     0.6033 0.0000e+00
      5.000     9.6046    30.1478 -9.990e-29 -9.990e-29    23.2326 1.8353e+01      5.258     0.6353 0.0000e+00
      4.000     9.6291    30.1335 -9.990e-29 -9.990e-29    23.2178 2.5097e+01      4.298     0.6587 0.0000e+00
      3.000     9.6451    30.1173 -9.990e-29 -9.990e-29    23.2012 3.5030e+01      3.373     0.6849 0.0000e+00
      2.000     9.6494    30.1084 -9.990e-29 -9.990e-29    23.1918 4.9649e+01      2.592     0.7174 0.0000e+00
      1.000     9.6501    30.1055 -9.990e-29 -9.990e-29    23.1886 9.0066e+01      1.933     0.7266 0.0000e+00
