* Sea-Bird SBE19plus Data File:
* FileName = C:\data\otf\2007\ctd-07095.hex
* Software Version 1.55
* Temperature SN =  5061
* Conductivity SN =  5061
* System UpLoad Time = Aug 15 2007 16:26:11
* ds
* SeacatPlus V 1.6a  SERIAL NO. 5061    15 Aug 2007  15:31:53
* vbatt = 10.9, vlith =  8.7, ioper =  61.6 ma, ipump =  57.5 ma, 
* iext01 =  95.2 ma
* iext23 =  58.1 ma
* 
* status = not logging
* number of scans to average = 1
* samples = 153039, free = 288466, casts = 154
* mode = profile, minimum cond freq = 3000, pump delay = 60 sec
* autorun = no, ignore magnetic switch = no
* battery type = alkaline, battery cutoff =  7.3 volts
* pressure sensor = strain gauge, range = 870.0
* SBE 38 = no, Gas Tension Device = no
* Ext Volt 0 = yes, Ext Volt 1 = yes, Ext Volt 2 = yes, Ext Volt 3 = yes
* echo commands = yes
* output format = raw HEX
* S>
* 
* SeacatPlus V 1.6a  SERIAL NO. 5061    15 Aug 2007  15:32:18
* temperature:  05-oct-06
*     TA0 = 1.254184e-03
*     TA1 = 2.596730e-04
*     TA2 = 5.165612e-07
*     TA3 = 1.318931e-07
*     TOFFSET = 0.000000e+00
* conductivity:  05-oct-06
*     G = -9.978144e-01
*     H = 1.555200e-01
*     I = -4.839108e-04
*     J = 6.121100e-05
*     CF0 = 2.539936e+03
*     CPCOR = -9.570000e-08
*     CTCOR = 3.250000e-06
*     CSLOPE = 1.000000e+00
* pressure S/N = 2362539, range = 870 psia:  24-aug-06
*     PA0 = 2.171091e-01
*     PA1 = 2.647085e-03
*     PA2 = 1.419397e-11
*     PTCA0 = 5.242437e+05
*     PTCA1 = 7.545345e+00
*     PTCA2 = -1.835354e-01
*     PTCB0 = 2.537125e+01
*     PTCB1 = -1.750000e-03
*     PTCB2 = 0.000000e+00
*     PTEMPA0 = -5.753989e+01
*     PTEMPA1 = 5.235813e+01
*     PTEMPA2 = -4.015521e-02
*     POFFSET = 0.000000e+00
* volt 0: offset = -4.682842e-02, slope = 1.249147e+00
* volt 1: offset = -4.695158e-02, slope = 1.248145e+00
* volt 2: offset = -4.685263e-02, slope = 1.248783e+00
* volt 3: offset = -4.690316e-02, slope = 1.249508e+00
*     EXTFREQSF = 1.000002e+00
* dh
* cast  95 19 Jul 2007 11:52:09 samples 57342 to 57630, avg = 4, stop = mag switch
* S> 
# nquan = 10
# nvalues = 114                         
# units = specified
# name 0 = depSM: Depth [salt water, m]
# name 1 = tv290C: Temperature [ITS-90, deg C]
# name 2 = sal00: Salinity [PSU]
# name 3 = sbeox0Mg/L: Oxygen, SBE 43 [mg/l]
# name 4 = sbeox0PS: Oxygen, SBE 43 [% saturation]
# name 5 = sigma-t00: Density [sigma-t, Kg/m^3 ]
# name 6 = par: PAR/Irradiance, Biospherical/Licor
# name 7 = prdM: Pressure, Strain Gauge [db]
# name 8 = flECO-AFL: Fluorescence, Wetlab ECO-AFL/FL [mg/m^3]
# name 9 = flag: flag
# span 0 =      1.000,     59.000       
# span 1 =     8.3462,     8.7032       
# span 2 =    31.4462,    31.5969       
# span 3 =    9.33657,   11.22321       
# span 4 =   93.46042,  102.64356       
# span 5 =    24.3938,    24.5523       
# span 6 = 1.6029e+00, 1.1643e+03       
# span 7 =      1.753,     59.194       
# span 8 =     0.6595,     1.3773       
# span 9 = 0.0000e+00, 0.0000e+00       
# interval = meters: 1                  
# start_time = Jul 19 2007 11:52:09
# bad_flag = -9.990e-29
# sensor 0 = Frequency 0  temperature, 5061, 05-Oct-06
# sensor 1 = Frequency 1  conductivity, 5061, 05-Oct-06, cpcor = -9.5700e-08
# sensor 2 = Pressure Number
# sensor 3 = Extrnl Volt  0  irradiance (PAR), primary, 4751, 08/10/06
# sensor 4 = Extrnl Volt  1  Oxygen, SBE, primary, 1081, 10/24/06
# sensor 5 = Extrnl Volt  2  WET Labs, ECO_AFL
# sensor 6 = Extrnl Volt  3  userpoly 0, 0627, 10/11/06
# datcnv_date = Oct 15 2007 14:49:46, 5.37e
# datcnv_in = I:\bob d\OTF_GEM\2007\ctd-07095.hex I:\Willette\OTF\CTD\5061.con
# datcnv_skipover = 0
# filter_date = Oct 15 2007 15:02:27, 5.37e
# filter_in = I:\Willette\OTF\CTD\2007\CTD Data\ctd-07095.cnv
# filter_low_pass_tc_A = 1.000
# filter_low_pass_tc_B = 0.150
# filter_low_pass_A_vars = prdM
# filter_low_pass_B_vars =
# loopedit_date = Oct 15 2007 15:06:49, 5.37e
# loopedit_in = I:\Willette\OTF\CTD\2007\CTD Data\ctd-07095.cnv
# loopedit_minVelocity = 0.250                                                                                            
# loopedit_surfaceSoak: minDepth = 5.0, maxDepth = 20, useDeckPress = 1                                                   
# loopedit_excl_bad_scans = yes
# alignctd_date = Oct 15 2007 15:14:17, 5.37e
# alignctd_in = I:\Willette\OTF\CTD\2007\CTD Data\ctd-07095.cnv
# alignctd_adv = tv290C 0.500, sbeox0Mg/L 4.000, sbeox0PS 4.000                                                                                                                                                                      
# binavg_date = Oct 15 2007 15:18:45, 5.37e
# binavg_in = I:\Willette\OTF\CTD\2007\CTD Data\ctd-07095.cnv
# binavg_bintype = meters
# binavg_binsize = 1
# binavg_excl_bad_scans = yes
# binavg_skipover = 0
# binavg_surface_bin = no, min = 0.000, max = 0.000, value = 0.000
# file_type = ascii
*END*
      4.000     8.5913    31.4972    9.33657   97.75776    24.4350 4.6338e+02      4.526     0.8760 0.0000e+00
      5.000     8.5793    31.5293    9.40990   98.44137    24.4638 3.7460e+02      5.615     0.8503 0.0000e+00
      6.000     8.5613    31.4989    9.45108   98.84770    24.4411 3.1625e+02      6.712     0.9015 0.0000e+00
      7.000     8.5528    31.4920    9.47944   99.15575    24.4378 2.6042e+02      7.630     0.9168 0.0000e+00
      8.000     8.5427    31.4873    9.50292   99.39175    24.4354 2.1726e+02      8.466     0.9997 0.0000e+00
      9.000     8.5291    31.4813    9.51974   99.54027    24.4316 1.8149e+02      9.250     1.0577 0.0000e+00
     10.000     8.5263    31.4795    9.53093   99.63857    24.4314 1.5131e+02      9.932     1.1304 0.0000e+00
     11.000     8.5086    31.5130    9.53924   99.70668    24.4600 1.2410e+02     11.132     1.2889 0.0000e+00
     12.000     8.4940    31.4764    9.55147   99.85011    24.4335 1.0578e+02     12.313     1.3081 0.0000e+00
     13.000     8.4899    31.4761    9.57190  100.07374    24.4362 8.7626e+01     13.590     1.3636 0.0000e+00
     14.000     8.4884    31.4753    9.58576  100.21624    24.4358 7.3221e+01     14.573     1.3002 0.0000e+00
     15.000     8.4597    31.4764    9.59070  100.27020    24.4369 6.1292e+01     15.444     1.3210 0.0000e+00
     16.000     8.4312    31.4770    9.60009  100.37054    24.4377 5.1194e+01     16.465     1.3232 0.0000e+00
     17.000     8.4267    31.5037    9.60775  100.44722    24.4634 4.3421e+01     17.320     1.3773 0.0000e+00
     18.000     8.4406    31.5236    9.61370  100.51701    24.4821 3.6379e+01     18.133     1.3359 0.0000e+00
     19.000     8.4392    31.5221    9.62400  100.61894    24.4808 3.0404e+01     19.187     1.3343 0.0000e+00
     20.000     8.4259    31.5165    9.62431  100.61677    24.4755 2.5530e+01     20.195     1.3061 0.0000e+00
     21.000     8.4136    31.5184    9.62325  100.58247    24.4773 2.1392e+01     21.088     1.2767 0.0000e+00
     22.000     8.4036    31.5292    9.62240  100.55932    24.4876 1.7955e+01     22.019     1.3181 0.0000e+00
     23.000     8.3976    31.5418    9.62679  100.61066    24.4997 1.5208e+01     22.994     1.3703 0.0000e+00
     24.000     8.4084    31.5519    9.62696  100.59987    24.5093 1.2747e+01     24.365     1.2973 0.0000e+00
     25.000     8.4142    31.5453    9.62710  100.59486    24.5031 1.0909e+01     25.843     1.2791 0.0000e+00
     26.000     8.4120    31.5398    9.62562  100.58074    24.4980 9.4209e+00     26.695     1.2689 0.0000e+00
     27.000     8.4133    31.5388    9.63592  100.69141    24.4969 8.1528e+00     27.727     1.2992 0.0000e+00
     28.000     8.4145    31.5401    9.63656  100.70942    24.4982 7.1345e+00     28.717     1.2919 0.0000e+00
     29.000     8.4130    31.5392    9.63708  100.71419    24.4973 6.3419e+00     29.521     1.3217 0.0000e+00
     30.000     8.4158    31.5382    9.63335  100.66948    24.4964 5.6147e+00     30.354     1.3267 0.0000e+00
     31.000     8.4135    31.5389    9.63502  100.68881    24.4971 4.9989e+00     31.250     1.3006 0.0000e+00
     32.000     8.4139    31.5374    9.64069  100.74645    24.4956 4.4874e+00     32.139     1.3074 0.0000e+00
     33.000 -9.990e-29 -9.990e-29 -9.990e-29 -9.990e-29 -9.990e-29 -9.990e-29 -9.990e-29 -9.990e-29 -9.990e-29
     34.000     8.4095    31.5393    9.64405  100.76723    24.4975 3.8281e+00     33.432     1.2992 0.0000e+00
     35.000     8.3869    31.5381    9.64378  100.74669    24.4962 3.3518e+00     34.546     1.2777 0.0000e+00
     36.000     8.3873    31.5442    9.64335  100.73124    24.5020 3.0633e+00     35.637     1.2767 0.0000e+00
     37.000     8.3905    31.5632    9.63987  100.67626    24.5201 2.8493e+00     36.769     1.3289 0.0000e+00
     38.000     8.3791    31.5593    9.63429  100.60817    24.5164 2.6585e+00     38.562     1.2932 0.0000e+00
     39.000     8.3819    31.5700    9.64748  100.74961    24.5267 2.5086e+00     39.839     1.3185 0.0000e+00
     40.000     8.3861    31.5668    9.64209  100.69263    24.5236 2.3779e+00     40.667     1.2730 0.0000e+00
     41.000     8.3890    31.5657    9.64561  100.72794    24.5226 2.2641e+00     41.621     1.2693 0.0000e+00
     42.000     8.3871    31.5621    9.64633  100.73493    24.5192 2.1641e+00     42.467     1.2853 0.0000e+00
     43.000     8.3871    31.5599    9.64854  100.75849    24.5171 2.0781e+00     43.273     1.2637 0.0000e+00
     44.000 -9.990e-29 -9.990e-29 -9.990e-29 -9.990e-29 -9.990e-29 -9.990e-29 -9.990e-29 -9.990e-29 -9.990e-29
     45.000     8.3859    31.5631    9.64953  100.76925    24.5200 1.9667e+00     44.441     1.2816 0.0000e+00
     46.000     8.3741    31.5623    9.64286  100.69976    24.5192 1.8811e+00     45.622     1.2474 0.0000e+00
     47.000     8.3584    31.5748    9.66225  100.90237    24.5312 1.8327e+00     47.259     1.2495 0.0000e+00
     48.000     8.3477    31.5854    9.66238  100.90314    24.5414 1.7965e+00     48.772     1.2342 0.0000e+00
     49.000     8.3473    31.5959    9.66538  100.93441    24.5514 1.7633e+00     49.920     1.2558 0.0000e+00
     50.000     8.3478    31.5959    9.66845  100.96657    24.5515 1.7350e+00     50.821     1.2484 0.0000e+00
     51.000     8.3471    31.5952    9.67009  100.98353    24.5508 1.7082e+00     51.777     1.2361 0.0000e+00
     52.000     8.3463    31.5947    9.67276  101.01123    24.5504 1.6877e+00     52.729     1.2242 0.0000e+00
     53.000     8.3462    31.5959    9.67280  101.01170    24.5514 1.6699e+00     53.399     1.2154 0.0000e+00
     54.000     8.3466    31.5963    9.67359  101.02078    24.5518 1.6538e+00     54.088     1.2417 0.0000e+00
     55.000     8.3468    31.5965    9.67253  101.01297    24.5520 1.6394e+00     54.852     1.2156 0.0000e+00
     56.000     8.3469    31.5964    9.67182  101.00431    24.5519 1.6267e+00     55.595     1.2181 0.0000e+00
     57.000     8.3468    31.5962    9.67011  100.98623    24.5517 1.6112e+00     56.242     1.2355 0.0000e+00
     58.000     8.3470    31.5961    9.67214  101.00786    24.5516 1.6029e+00     57.088     1.2441 0.0000e+00
     59.000     8.3474    31.5961    9.67343  101.02831    24.5516 1.6063e+00     59.194     1.2277 0.0000e+00
     58.000     8.3477    31.5961    9.68266  101.11823    24.5515 1.6161e+00     58.281     1.1740 0.0000e+00
     57.000     8.3483    31.5960    9.68078  101.09951    24.5514 1.6237e+00     57.274     1.2082 0.0000e+00
     56.000     8.3534    31.5933    9.68646  101.15850    24.5489 1.6405e+00     56.438     1.1803 0.0000e+00
     55.000     8.3550    31.5892    9.68687  101.15950    24.5449 1.6570e+00     55.321     1.2197 0.0000e+00
     54.000     8.3478    31.5905    9.68583  101.15787    24.5462 1.6751e+00     54.491     1.2123 0.0000e+00
     53.000     8.3488    31.5969    9.68936  101.22571    24.5523 1.6957e+00     53.359     1.1430 0.0000e+00
     52.000     8.3494    31.5944    9.69597  101.30953    24.5499 1.7212e+00     52.463     1.1726 0.0000e+00
     51.000     8.3485    31.5937    9.70162  101.37555    24.5493 1.7480e+00     51.479     1.1788 0.0000e+00
     50.000     8.3472    31.5950    9.71113  101.47664    24.5506 1.7781e+00     50.358     1.1917 0.0000e+00
     49.000     8.3470    31.5954    9.71557  101.51228    24.5510 1.8101e+00     49.447     1.2487 0.0000e+00
     48.000     8.3661    31.5923    9.70933  101.41928    24.5479 1.8420e+00     48.460     1.1886 0.0000e+00
     47.000     8.3727    31.5793    9.70924  101.45391    24.5356 1.8817e+00     47.457     1.1401 0.0000e+00
     46.000     8.3813    31.5706    9.71387  101.50721    24.5273 1.9351e+00     46.422     1.1098 0.0000e+00
     45.000     8.3850    31.5651    9.71176  101.48892    24.5221 2.0061e+00     45.335     1.1652 0.0000e+00
     44.000     8.3827    31.5633    9.70537  101.42989    24.5204 2.1049e+00     44.452     1.1459 0.0000e+00
     43.000     8.3660    31.5674    9.71217  101.49451    24.5243 2.2380e+00     43.391     1.1873 0.0000e+00
     42.000     8.3744    31.5831    9.71556  101.52408    24.5393 2.3901e+00     42.370     1.1731 0.0000e+00
     41.000     8.3834    31.5700    9.71712  101.54442    24.5268 2.5709e+00     41.355     1.1337 0.0000e+00
     40.000     8.3852    31.5641    9.71313  101.50146    24.5211 2.7708e+00     40.340     1.1938 0.0000e+00
     39.000     8.3875    31.5630    9.71925  101.57062    24.5200 2.9926e+00     39.389     1.1834 0.0000e+00
     38.000     8.3916    31.5593    9.72007  101.58450    24.5166 3.2826e+00     38.307     1.1866 0.0000e+00
     37.000     8.3853    31.5571    9.71517  101.54307    24.5145 3.6216e+00     37.231     1.1371 0.0000e+00
     36.000     8.3841    31.5627    9.71794  101.57194    24.5198 3.9524e+00     36.334     1.1805 0.0000e+00
     35.000     8.3866    31.5622    9.71842  101.57343    24.5193 4.3325e+00     35.332     1.1774 0.0000e+00
     34.000     8.3860    31.5617    9.71966  101.58515    24.5189 4.7312e+00     34.255     1.1761 0.0000e+00
     33.000     8.3886    31.5613    9.72432  101.64083    24.5187 5.0489e+00     33.233     1.1741 0.0000e+00
     32.000     8.3907    31.5595    9.72726  101.69270    24.5169 5.3624e+00     32.404     1.1132 0.0000e+00
     31.000     8.3953    31.5569    9.73252  101.76616    24.5144 5.6517e+00     31.295     1.1456 0.0000e+00
     30.000     8.3990    31.5526    9.72580  101.71936    24.5104 6.0024e+00     30.155     1.0770 0.0000e+00
     29.000     8.3958    31.5513    9.73383  101.81494    24.5091 6.5463e+00     29.301     1.1210 0.0000e+00
     28.000     8.3951    31.5531    9.73938  101.87246    24.5107 7.2866e+00     28.353     1.1201 0.0000e+00
     27.000     8.3963    31.5536    9.74144  101.91993    24.5113 8.2421e+00     27.162     1.1120 0.0000e+00
     26.000     8.4051    31.5524    9.74105  101.91976    24.5102 9.3833e+00     26.311     1.1141 0.0000e+00
     25.000     8.4195    31.5426    9.73253  101.84853    24.5009 1.0766e+01     25.231     1.0877 0.0000e+00
     24.000     8.4298    31.5312    9.72402  101.76729    24.4900 1.2477e+01     24.278     1.1353 0.0000e+00
     23.000     8.4413    31.5211    9.73314  101.87191    24.4804 1.4361e+01     23.206     1.0906 0.0000e+00
     22.000     8.4400    31.5118    9.72659  101.80898    24.4716 1.6456e+01     22.262     1.0380 0.0000e+00
     21.000     8.4522    31.5123    9.74082  101.96003    24.4721 1.9286e+01     21.194     1.1201 0.0000e+00
     20.000     8.4593    31.5017    9.74305  101.99930    24.4620 2.2713e+01     20.090     1.0593 0.0000e+00
     19.000     8.4684    31.4954    9.75083  102.11141    24.4559 2.6617e+01     18.985     1.0480 0.0000e+00
     18.000     8.4733    31.4886    9.75118  102.14129    24.4494 3.1258e+01     17.904     1.0372 0.0000e+00
     17.000     8.4776    31.4853    9.75430  102.20573    24.4462 3.7636e+01     16.894     1.0339 0.0000e+00
     16.000     8.4807    31.4829    9.76241  102.31579    24.4439 4.4635e+01     15.974     1.1817 0.0000e+00
     15.000     8.4818    31.4794    9.76375  102.34346    24.4406 5.3314e+01     14.999     1.0300 0.0000e+00
     14.000     8.4823    31.4787    9.76264  102.33936    24.4399 6.4434e+01     14.088     1.1349 0.0000e+00
     13.000     8.4834    31.4784    9.76768  102.39776    24.4395 7.7766e+01     13.140     1.0408 0.0000e+00
     12.000     8.4987    31.4778    9.77584  102.49876    24.4389 9.5099e+01     12.002     1.1278 0.0000e+00
     11.000     8.5082    31.4713    9.77599  102.53429    24.4321 1.1576e+02     11.126     1.1500 0.0000e+00
     10.000     8.5173    31.4634    9.77539  102.62548    24.4241 1.4121e+02     10.114     1.1233 0.0000e+00
      9.000     8.5275    31.4605    9.76466  102.64356    24.4206 1.7504e+02      9.212     1.0964 0.0000e+00
      8.000     8.5423    31.4572    9.66434  101.55659    24.4164 2.2073e+02      8.160     1.0422 0.0000e+00
      7.000     8.5501    31.4527   10.71678  100.36567    24.4108 2.7539e+02      7.163     0.9994 0.0000e+00
      6.000     8.5551    31.4496   11.22321   98.00523    24.4070 3.3235e+02      6.153     0.9463 0.0000e+00
      5.000     8.5584    31.4483   11.00202   95.82236    24.4052 4.0367e+02      5.217     0.8680 0.0000e+00
      4.000     8.5643    31.4473   10.87126   94.22573    24.4039 4.8152e+02      4.213     0.7750 0.0000e+00
      3.000     8.5799    31.4469   10.81209   93.46042    24.4028 5.8718e+02      3.348     0.7165 0.0000e+00
      2.000     8.6287    31.4476 -9.990e-29 -9.990e-29    24.4012 8.3382e+02      2.499     0.6880 0.0000e+00
      1.000     8.7032    31.4462 -9.990e-29 -9.990e-29    24.3938 1.1643e+03      1.753     0.6595 0.0000e+00
