* Sea-Bird SBE19plus Data File:
* FileName = C:\data\otf\2007\ctd-07060.hex
* Software Version 1.55
* Temperature SN =  5061
* Conductivity SN =  5061
* System UpLoad Time = Aug 15 2007 16:13:38
* ds
* SeacatPlus V 1.6a  SERIAL NO. 5061    15 Aug 2007  15:31:53
* vbatt = 10.9, vlith =  8.7, ioper =  61.6 ma, ipump =  57.5 ma, 
* iext01 =  95.2 ma
* iext23 =  58.1 ma
* 
* status = not logging
* number of scans to average = 1
* samples = 153039, free = 288466, casts = 154
* mode = profile, minimum cond freq = 3000, pump delay = 60 sec
* autorun = no, ignore magnetic switch = no
* battery type = alkaline, battery cutoff =  7.3 volts
* pressure sensor = strain gauge, range = 870.0
* SBE 38 = no, Gas Tension Device = no
* Ext Volt 0 = yes, Ext Volt 1 = yes, Ext Volt 2 = yes, Ext Volt 3 = yes
* echo commands = yes
* output format = raw HEX
* S>
* 
* SeacatPlus V 1.6a  SERIAL NO. 5061    15 Aug 2007  15:32:18
* temperature:  05-oct-06
*     TA0 = 1.254184e-03
*     TA1 = 2.596730e-04
*     TA2 = 5.165612e-07
*     TA3 = 1.318931e-07
*     TOFFSET = 0.000000e+00
* conductivity:  05-oct-06
*     G = -9.978144e-01
*     H = 1.555200e-01
*     I = -4.839108e-04
*     J = 6.121100e-05
*     CF0 = 2.539936e+03
*     CPCOR = -9.570000e-08
*     CTCOR = 3.250000e-06
*     CSLOPE = 1.000000e+00
* pressure S/N = 2362539, range = 870 psia:  24-aug-06
*     PA0 = 2.171091e-01
*     PA1 = 2.647085e-03
*     PA2 = 1.419397e-11
*     PTCA0 = 5.242437e+05
*     PTCA1 = 7.545345e+00
*     PTCA2 = -1.835354e-01
*     PTCB0 = 2.537125e+01
*     PTCB1 = -1.750000e-03
*     PTCB2 = 0.000000e+00
*     PTEMPA0 = -5.753989e+01
*     PTEMPA1 = 5.235813e+01
*     PTEMPA2 = -4.015521e-02
*     POFFSET = 0.000000e+00
* volt 0: offset = -4.682842e-02, slope = 1.249147e+00
* volt 1: offset = -4.695158e-02, slope = 1.248145e+00
* volt 2: offset = -4.685263e-02, slope = 1.248783e+00
* volt 3: offset = -4.690316e-02, slope = 1.249508e+00
*     EXTFREQSF = 1.000002e+00
* dh
* cast  60 12 Jul 2007 08:40:27 samples 45632 to 45949, avg = 4, stop = mag switch
* S> 
# nquan = 10
# nvalues = 138                         
# units = specified
# name 0 = depSM: Depth [salt water, m]
# name 1 = tv290C: Temperature [ITS-90, deg C]
# name 2 = sal00: Salinity [PSU]
# name 3 = sbeox0Mg/L: Oxygen, SBE 43 [mg/l]
# name 4 = sbeox0PS: Oxygen, SBE 43 [% saturation]
# name 5 = sigma-t00: Density [sigma-t, Kg/m^3 ]
# name 6 = par: PAR/Irradiance, Biospherical/Licor
# name 7 = prdM: Pressure, Strain Gauge [db]
# name 8 = flECO-AFL: Fluorescence, Wetlab ECO-AFL/FL [mg/m^3]
# name 9 = flag: flag
# span 0 =      1.000,     71.000       
# span 1 =     8.3259,     9.5209       
# span 2 =    30.2884,    31.3811       
# span 3 =    9.03211,   10.07433       
# span 4 =   95.22654,  102.06851       
# span 5 =    23.3640,    24.3859       
# span 6 = 1.5481e+00, 7.5977e+01       
# span 7 =      1.909,     70.249       
# span 8 =     0.3916,     0.5818       
# span 9 = 0.0000e+00, 0.0000e+00       
# interval = meters: 1                  
# start_time = Jul 12 2007 08:40:27
# bad_flag = -9.990e-29
# sensor 0 = Frequency 0  temperature, 5061, 05-Oct-06
# sensor 1 = Frequency 1  conductivity, 5061, 05-Oct-06, cpcor = -9.5700e-08
# sensor 2 = Pressure Number
# sensor 3 = Extrnl Volt  0  irradiance (PAR), primary, 4751, 08/10/06
# sensor 4 = Extrnl Volt  1  Oxygen, SBE, primary, 1081, 10/24/06
# sensor 5 = Extrnl Volt  2  WET Labs, ECO_AFL
# sensor 6 = Extrnl Volt  3  userpoly 0, 0627, 10/11/06
# datcnv_date = Oct 15 2007 14:49:45, 5.37e
# datcnv_in = I:\bob d\OTF_GEM\2007\ctd-07060.hex I:\Willette\OTF\CTD\5061.con
# datcnv_skipover = 0
# filter_date = Oct 15 2007 15:02:25, 5.37e
# filter_in = I:\Willette\OTF\CTD\2007\CTD Data\ctd-07060.cnv
# filter_low_pass_tc_A = 1.000
# filter_low_pass_tc_B = 0.150
# filter_low_pass_A_vars = prdM
# filter_low_pass_B_vars =
# loopedit_date = Oct 15 2007 15:06:47, 5.37e
# loopedit_in = I:\Willette\OTF\CTD\2007\CTD Data\ctd-07060.cnv
# loopedit_minVelocity = 0.250                                                                                            
# loopedit_surfaceSoak: minDepth = 5.0, maxDepth = 20, useDeckPress = 1                                                   
# loopedit_excl_bad_scans = yes
# alignctd_date = Oct 15 2007 15:14:15, 5.37e
# alignctd_in = I:\Willette\OTF\CTD\2007\CTD Data\ctd-07060.cnv
# alignctd_adv = tv290C 0.500, sbeox0Mg/L 4.000, sbeox0PS 4.000                                                                                                                                                                      
# binavg_date = Oct 15 2007 15:18:44, 5.37e
# binavg_in = I:\Willette\OTF\CTD\2007\CTD Data\ctd-07060.cnv
# binavg_bintype = meters
# binavg_binsize = 1
# binavg_excl_bad_scans = yes
# binavg_skipover = 0
# binavg_surface_bin = no, min = 0.000, max = 0.000, value = 0.000
# file_type = ascii
*END*
      4.000     9.3674    30.2884    9.03211   95.22654    23.3640 2.9687e+01      4.640     0.5379 0.0000e+00
      5.000     9.3377    30.3244    9.22245   97.17951    23.4024 2.1845e+01      5.442     0.4941 0.0000e+00
      6.000     9.3307    30.3300    9.29537   97.83156    23.4096 1.7054e+01      6.128     0.4856 0.0000e+00
      7.000     9.3562    30.3407    9.35183   98.31783    23.4209 1.3034e+01      6.894     0.4659 0.0000e+00
      8.000     9.3161    30.3635    9.44566   99.32357    23.4388 9.7948e+00      8.222     0.4514 0.0000e+00
      9.000     9.2475    30.3635    9.50131   99.88914    23.4418 7.6882e+00      9.788     0.4316 0.0000e+00
     10.000     9.2171    30.3938    9.51793   99.98445    23.4749 6.1968e+00     10.901     0.4360 0.0000e+00
     11.000     9.1901    30.4169    9.52219   99.92403    23.4966 4.9881e+00     11.667     0.4542 0.0000e+00
     12.000     9.1672    30.4336    9.53882  100.10807    23.5123 4.0365e+00     12.648     0.4291 0.0000e+00
     13.000     9.1022    30.4534    9.55626  100.27031    23.5313 3.4384e+00     13.273     0.4158 0.0000e+00
     14.000     9.0217    30.4827    9.56856  100.38765    23.5573 2.9050e+00     14.195     0.3970 0.0000e+00
     15.000     9.0205    30.5404    9.57953  100.54139    23.6114 2.6199e+00     14.809     0.3916 0.0000e+00
     16.000     8.9800    30.6023    9.58902  100.63679    23.6693 2.3380e+00     15.529     0.4027 0.0000e+00
     17.000     8.8823    30.6553    9.59833  100.71745    23.7174 2.1364e+00     16.605     0.4101 0.0000e+00
     18.000     8.8760    30.7882    9.61548  100.85697    23.8394 1.9745e+00     18.017     0.4110 0.0000e+00
     19.000     8.8813    30.7935    9.63383  101.03061    23.8454 1.8679e+00     19.296     0.4440 0.0000e+00
     20.000     8.8655    30.7867    9.63919  101.06326    23.8388 1.7909e+00     20.283     0.4108 0.0000e+00
     21.000     8.8210    30.7947    9.64222  100.95733    23.8461 1.7315e+00     21.235     0.4125 0.0000e+00
     22.000     8.7316    30.8225    9.64276  100.73740    23.8713 1.6819e+00     22.447     0.4054 0.0000e+00
     23.000     8.7492    30.8941    9.66105  100.92844    23.9362 1.6522e+00     23.103     0.4231 0.0000e+00
     24.000     8.7352    30.9264    9.67385  101.00842    23.9668 1.6267e+00     24.196     0.4210 0.0000e+00
     25.000     8.7530    30.9451    9.68795  101.14405    23.9838 1.6080e+00     25.170     0.4203 0.0000e+00
     26.000     8.7522    30.9293    9.70155  101.24564    23.9696 1.5945e+00     26.121     0.4209 0.0000e+00
     27.000     8.7231    30.9312    9.71931  101.40475    23.9711 1.5830e+00     27.451     0.4156 0.0000e+00
     28.000     8.7098    30.9583    9.72053  101.39757    23.9957 1.5754e+00     28.600     0.4130 0.0000e+00
     29.000     8.7003    30.9752    9.72433  101.42768    24.0116 1.5693e+00     29.749     0.4086 0.0000e+00
     30.000     8.6731    30.9850    9.72222  101.40559    24.0202 1.5642e+00     30.901     0.4244 0.0000e+00
     31.000     8.5528    31.0054    9.71902  101.38210    24.0386 1.5612e+00     31.934     0.4281 0.0000e+00
     32.000     8.4965    31.0860    9.72769  101.47162    24.1121 1.5585e+00     32.942     0.4229 0.0000e+00
     33.000     8.4563    31.1695    9.73697  101.56615    24.1888 1.5565e+00     33.866     0.4251 0.0000e+00
     34.000 -9.990e-29 -9.990e-29 -9.990e-29 -9.990e-29 -9.990e-29 -9.990e-29 -9.990e-29 -9.990e-29 -9.990e-29
     35.000     8.4284    31.2364    9.74223  101.62092    24.2507 1.5544e+00     35.220     0.4256 0.0000e+00
     36.000     8.4260    31.2810    9.74258  101.58742    24.2921 1.5529e+00     36.498     0.4099 0.0000e+00
     37.000     8.4124    31.2858    9.74506  101.59342    24.2968 1.5528e+00     37.345     0.4022 0.0000e+00
     38.000     8.3925    31.2853    9.74949  101.63303    24.2964 1.5521e+00     38.185     0.4093 0.0000e+00
     39.000     8.3850    31.3004    9.75552  101.69443    24.3099 1.5514e+00     39.170     0.4261 0.0000e+00
     40.000     8.3793    31.3204    9.75875  101.72758    24.3288 1.5514e+00     40.132     0.4075 0.0000e+00
     41.000     8.3729    31.3263    9.75659  101.70319    24.3344 1.5512e+00     40.845     0.4057 0.0000e+00
     42.000     8.3664    31.3321    9.75495  101.68323    24.3397 1.5510e+00     41.700     0.4186 0.0000e+00
     43.000     8.3633    31.3405    9.75797  101.71430    24.3474 1.5509e+00     42.625     0.4363 0.0000e+00
     44.000     8.3630    31.3474    9.75554  101.69065    24.3539 1.5511e+00     43.461     0.4341 0.0000e+00
     45.000     8.3692    31.3496    9.75197  101.66288    24.3561 1.5510e+00     44.599     0.4411 0.0000e+00
     46.000     8.3690    31.3462    9.76269  101.76356    24.3529 1.5507e+00     45.667     0.4329 0.0000e+00
     47.000     8.3671    31.3437    9.76458  101.78293    24.3506 1.5505e+00     46.804     0.4347 0.0000e+00
     48.000     8.3429    31.3494    9.75856  101.72876    24.3560 1.5504e+00     48.018     0.4341 0.0000e+00
     49.000     8.3313    31.3706    9.75784  101.71221    24.3762 1.5505e+00     49.206     0.4343 0.0000e+00
     50.000     8.3280    31.3769    9.76720  101.80741    24.3823 1.5502e+00     50.365     0.4537 0.0000e+00
     51.000     8.3314    31.3780    9.76838  101.82112    24.3836 1.5500e+00     51.501     0.4685 0.0000e+00
     52.000     8.3273    31.3744    9.75616  101.70016    24.3800 1.5496e+00     52.452     0.4600 0.0000e+00
     53.000     8.3312    31.3776    9.76137  101.75223    24.3832 1.5503e+00     53.339     0.4521 0.0000e+00
     54.000     8.3294    31.3734    9.76272  101.76689    24.3791 1.5500e+00     54.311     0.4504 0.0000e+00
     55.000     8.3266    31.3774    9.76037  101.74062    24.3830 1.5498e+00     55.365     0.4531 0.0000e+00
     56.000     8.3285    31.3785    9.74910  101.62708    24.3841 1.5498e+00     57.013     0.4853 0.0000e+00
     57.000     8.3292    31.3756    9.74932  101.62653    24.3813 1.5496e+00     58.280     0.4461 0.0000e+00
     58.000     8.3301    31.3772    9.75888  101.72521    24.3828 1.5496e+00     59.082     0.4382 0.0000e+00
     59.000     8.3288    31.3758    9.76025  101.73655    24.3814 1.5494e+00     60.012     0.4535 0.0000e+00
     60.000     8.3291    31.3771    9.76313  101.76648    24.3826 1.5496e+00     60.854     0.4538 0.0000e+00
     61.000     8.3272    31.3769    9.76325  101.76781    24.3824 1.5496e+00     61.724     0.4687 0.0000e+00
     62.000     8.3291    31.3778    9.75734  101.70730    24.3834 1.5495e+00     62.717     0.4376 0.0000e+00
     63.000     8.3308    31.3796    9.74585  101.58896    24.3849 1.5495e+00     63.480     0.4479 0.0000e+00
     64.000     8.3303    31.3754    9.75904  101.72563    24.3810 1.5495e+00     64.621     0.4497 0.0000e+00
     65.000     8.3292    31.3749    9.76444  101.78283    24.3807 1.5495e+00     65.441     0.4343 0.0000e+00
     66.000     8.3290    31.3765    9.76288  101.76648    24.3820 1.5494e+00     66.406     0.4550 0.0000e+00
     67.000     8.3285    31.3773    9.76444  101.78387    24.3828 1.5495e+00     67.236     0.4671 0.0000e+00
     68.000     8.3274    31.3775    9.76942  101.83632    24.3830 1.5493e+00     68.091     0.4406 0.0000e+00
     69.000     8.3263    31.3787    9.77017  101.84756    24.3841 1.5490e+00     68.938     0.4720 0.0000e+00
     70.000     8.3263    31.3798    9.76037  101.74929    24.3851 1.5493e+00     69.584     0.4617 0.0000e+00
     71.000     8.3269    31.3804    9.75839  101.73231    24.3855 1.5491e+00     70.249     0.4890 0.0000e+00
     70.000     8.3277    31.3803    9.75055  101.64468    24.3853 1.5491e+00     69.525     0.4904 0.0000e+00
     69.000     8.3280    31.3804    9.75129  101.65006    24.3854 1.5492e+00     68.957     0.4904 0.0000e+00
     68.000     8.3285    31.3802    9.74887  101.62552    24.3852 1.5492e+00     68.180     0.5044 0.0000e+00
     67.000     8.3305    31.3811    9.74984  101.63497    24.3859 1.5489e+00     67.381     0.4936 0.0000e+00
     66.000     8.3319    31.3792    9.74716  101.60715    24.3841 1.5488e+00     66.448     0.4784 0.0000e+00
     65.000     8.3310    31.3778    9.74983  101.63543    24.3827 1.5491e+00     65.616     0.4953 0.0000e+00
     64.000     8.3349    31.3783    9.75106  101.64875    24.3832 1.5490e+00     64.580     0.4629 0.0000e+00
     63.000     8.3366    31.3761    9.75387  101.67738    24.3810 1.5491e+00     63.557     0.4467 0.0000e+00
     62.000     8.3353    31.3732    9.75118  101.64682    24.3783 1.5492e+00     62.707     0.4379 0.0000e+00
     61.000     8.3323    31.3733    9.74726  101.60343    24.3786 1.5491e+00     61.752     0.4652 0.0000e+00
     60.000     8.3307    31.3750    9.73938  101.51991    24.3804 1.5488e+00     60.802     0.4614 0.0000e+00
     59.000     8.3311    31.3754    9.73424  101.46330    24.3810 1.5491e+00     59.728     0.4558 0.0000e+00
     58.000     8.3308    31.3753    9.74072  101.53071    24.3809 1.5489e+00     58.883     0.4694 0.0000e+00
     57.000     8.3317    31.3745    9.75441  101.68545    24.3803 1.5492e+00     57.310     0.5031 0.0000e+00
     56.000     8.3316    31.3732    9.73421  101.47925    24.3792 1.5489e+00     56.490     0.4682 0.0000e+00
     55.000     8.3309    31.3737    9.73364  101.47157    24.3795 1.5485e+00     55.524     0.4587 0.0000e+00
     54.000     8.3288    31.3747    9.73837  101.52659    24.3805 1.5483e+00     54.635     0.4642 0.0000e+00
     53.000     8.3280    31.3755    9.73926  101.53726    24.3813 1.5486e+00     53.659     0.4702 0.0000e+00
     52.000     8.3261    31.3760    9.72792  101.42073    24.3819 1.5486e+00     52.697     0.4539 0.0000e+00
     51.000     8.3259    31.3781    9.72997  101.44101    24.3838 1.5485e+00     51.746     0.4799 0.0000e+00
     50.000     8.3320    31.3773    9.74577  101.60972    24.3830 1.5485e+00     50.715     0.4707 0.0000e+00
     49.000     8.3341    31.3721    9.73860  101.54177    24.3780 1.5484e+00     49.641     0.4735 0.0000e+00
     48.000     8.3371    31.3709    9.72967  101.45094    24.3768 1.5485e+00     48.627     0.4799 0.0000e+00
     47.000     8.3383    31.3689    9.73216  101.49671    24.3749 1.5485e+00     47.501     0.4612 0.0000e+00
     46.000     8.3394    31.3691    9.73554  101.53794    24.3750 1.5484e+00     46.442     0.4601 0.0000e+00
     45.000     8.3432    31.3667    9.73940  101.56335    24.3727 1.5484e+00     45.354     0.4449 0.0000e+00
     44.000     8.3446    31.3633    9.74002  101.54470    24.3694 1.5484e+00     44.377     0.4389 0.0000e+00
     43.000     8.3540    31.3609    9.73601  101.52510    24.3672 1.5481e+00     43.376     0.4422 0.0000e+00
     42.000     8.3616    31.3504    9.74725  101.67850    24.3574 1.5482e+00     42.248     0.4451 0.0000e+00
     41.000     8.3577    31.3474    9.75129  101.79274    24.3546 1.5482e+00     41.020     0.4620 0.0000e+00
     40.000     8.3449    31.3512    9.73969  101.57838    24.3582 1.5484e+00     39.898     0.4471 0.0000e+00
     39.000     8.3354    31.3644    9.72207  101.50261    24.3706 1.5484e+00     38.741     0.4423 0.0000e+00
     38.000     8.3509    31.3684    9.73014  101.83581    24.3746 1.5488e+00     37.847     0.4562 0.0000e+00
     37.000     8.3533    31.3616    9.73414  102.06851    24.3685 1.5495e+00     36.823     0.5013 0.0000e+00
     36.000     8.3510    31.3432    9.72006  101.96930    24.3507 1.5499e+00     36.000     0.4629 0.0000e+00
     35.000     8.3733    31.3546    9.71065  101.96045    24.3616 1.5505e+00     34.998     0.4651 0.0000e+00
     34.000     8.3828    31.3406    9.70317  101.96291    24.3485 1.5518e+00     34.032     0.4464 0.0000e+00
     33.000     8.4224    31.3279    9.69308  101.89588    24.3367 1.5526e+00     33.011     0.4309 0.0000e+00
     32.000     8.4182    31.3065    9.68209  101.88638    24.3173 1.5554e+00     32.114     0.4347 0.0000e+00
     31.000     8.3816    31.2841    9.66727  101.77026    24.2965 1.5582e+00     31.150     0.4479 0.0000e+00
     30.000     8.3570    31.2934    9.65117  101.60538    24.3046 1.5606e+00     30.284     0.4983 0.0000e+00
     29.000     8.3628    31.3318    9.63722  101.45292    24.3402 1.5654e+00     29.388     0.5180 0.0000e+00
     28.000     8.4997    31.3572    9.62484  101.32555    24.3641 1.5718e+00     28.346     0.4505 0.0000e+00
     27.000     8.5918    31.2687    9.62407  101.29470    24.2844 1.5811e+00     27.332     0.4418 0.0000e+00
     26.000     8.6750    31.1576    9.62683  101.31843    24.1818 1.5930e+00     26.405     0.4484 0.0000e+00
     25.000     8.7215    31.0540    9.63251  101.35465    24.0871 1.6078e+00     25.494     0.4421 0.0000e+00
     24.000     8.7715    30.9727    9.62621  101.25566    24.0113 1.6263e+00     24.602     0.4408 0.0000e+00
     23.000     8.8049    30.9375    9.61684  101.15432    23.9789 1.6504e+00     23.684     0.4408 0.0000e+00
     22.000     8.8512    30.8758    9.61972  101.23905    23.9229 1.6856e+00     22.843     0.4408 0.0000e+00
     21.000     8.9072    30.8260    9.62330  101.28260    23.8766 1.7331e+00     22.002     0.4415 0.0000e+00
     20.000     8.9631    30.7532    9.62364  101.29120    23.8111 1.7979e+00     21.017     0.4097 0.0000e+00
     19.000     8.9550    30.6929    9.61066  101.19769    23.7547 1.8888e+00     19.852     0.4030 0.0000e+00
     18.000     8.9228    30.7112    9.60239  101.14086    23.7707 2.0091e+00     18.458     0.3972 0.0000e+00
     17.000     8.9408    30.7293    9.59395  101.21306    23.7874 2.1731e+00     17.186     0.3998 0.0000e+00
     16.000     8.9802    30.6849    9.59017  101.37158    23.7469 2.3887e+00     16.017     0.3970 0.0000e+00
     15.000     8.9917    30.6561    9.57299  101.19829    23.7203 2.7050e+00     15.071     0.3963 0.0000e+00
     14.000     9.0481    30.6519    9.57054  101.22391    23.7166 3.1133e+00     14.086     0.4065 0.0000e+00
     13.000     9.1833    30.5049    9.56162  101.19173    23.5817 3.6945e+00     12.985     0.4304 0.0000e+00
     12.000     9.2047    30.4359    9.56716  101.30570    23.5166 4.4656e+00     11.949     0.4208 0.0000e+00
     11.000     9.2179    30.4263    9.55451  101.23144    23.5074 5.5229e+00     10.973     0.4164 0.0000e+00
     10.000     9.2381    30.4152    9.55996  101.34968    23.4967 6.8778e+00      9.969     0.4101 0.0000e+00
      9.000     9.2609    30.3963    9.57979  101.63275    23.4788 8.8965e+00      9.055     0.4212 0.0000e+00
      8.000     9.2872    30.3715    9.59807  101.84342    23.4552 1.1485e+01      7.946     0.4397 0.0000e+00
      7.000     9.3090    30.3552   10.07433  100.24304    23.4390 1.5138e+01      6.920     0.4343 0.0000e+00
      6.000     9.3323    30.3441 -9.990e-29 -9.990e-29    23.4274 2.0093e+01      5.940     0.4450 0.0000e+00
      5.000     9.3558    30.3330 -9.990e-29 -9.990e-29    23.4151 2.6885e+01      4.927     0.4822 0.0000e+00
      4.000     9.3759    30.3259 -9.990e-29 -9.990e-29    23.4067 3.5901e+01      4.126     0.4912 0.0000e+00
      3.000     9.3937    30.3162 -9.990e-29 -9.990e-29    23.3956 4.6652e+01      3.208     0.5185 0.0000e+00
      2.000     9.4699    30.3170 -9.990e-29 -9.990e-29    23.3939 5.9292e+01      2.478     0.5247 0.0000e+00
      1.000     9.5209    30.3080 -9.990e-29 -9.990e-29    23.3795 7.5977e+01      1.909     0.5818 0.0000e+00
