* Sea-Bird SBE19plus Data File:
* FileName = C:\data\otf\2007\ctd-07026.hex
* Software Version 1.55
* Temperature SN =  5061
* Conductivity SN =  5061
* System UpLoad Time = Aug 15 2007 16:00:20
* ds
* SeacatPlus V 1.6a  SERIAL NO. 5061    15 Aug 2007  15:31:53
* vbatt = 10.9, vlith =  8.7, ioper =  61.6 ma, ipump =  57.5 ma, 
* iext01 =  95.2 ma
* iext23 =  58.1 ma
* 
* status = not logging
* number of scans to average = 1
* samples = 153039, free = 288466, casts = 154
* mode = profile, minimum cond freq = 3000, pump delay = 60 sec
* autorun = no, ignore magnetic switch = no
* battery type = alkaline, battery cutoff =  7.3 volts
* pressure sensor = strain gauge, range = 870.0
* SBE 38 = no, Gas Tension Device = no
* Ext Volt 0 = yes, Ext Volt 1 = yes, Ext Volt 2 = yes, Ext Volt 3 = yes
* echo commands = yes
* output format = raw HEX
* S>
* 
* SeacatPlus V 1.6a  SERIAL NO. 5061    15 Aug 2007  15:32:18
* temperature:  05-oct-06
*     TA0 = 1.254184e-03
*     TA1 = 2.596730e-04
*     TA2 = 5.165612e-07
*     TA3 = 1.318931e-07
*     TOFFSET = 0.000000e+00
* conductivity:  05-oct-06
*     G = -9.978144e-01
*     H = 1.555200e-01
*     I = -4.839108e-04
*     J = 6.121100e-05
*     CF0 = 2.539936e+03
*     CPCOR = -9.570000e-08
*     CTCOR = 3.250000e-06
*     CSLOPE = 1.000000e+00
* pressure S/N = 2362539, range = 870 psia:  24-aug-06
*     PA0 = 2.171091e-01
*     PA1 = 2.647085e-03
*     PA2 = 1.419397e-11
*     PTCA0 = 5.242437e+05
*     PTCA1 = 7.545345e+00
*     PTCA2 = -1.835354e-01
*     PTCB0 = 2.537125e+01
*     PTCB1 = -1.750000e-03
*     PTCB2 = 0.000000e+00
*     PTEMPA0 = -5.753989e+01
*     PTEMPA1 = 5.235813e+01
*     PTEMPA2 = -4.015521e-02
*     POFFSET = 0.000000e+00
* volt 0: offset = -4.682842e-02, slope = 1.249147e+00
* volt 1: offset = -4.695158e-02, slope = 1.248145e+00
* volt 2: offset = -4.685263e-02, slope = 1.248783e+00
* volt 3: offset = -4.690316e-02, slope = 1.249508e+00
*     EXTFREQSF = 1.000002e+00
* dh
* cast  26 06 Jul 2007 10:16:24 samples 32782 to 33045, avg = 4, stop = mag switch
* S> 
# nquan = 10
# nvalues = 119                         
# units = specified
# name 0 = depSM: Depth [salt water, m]
# name 1 = tv290C: Temperature [ITS-90, deg C]
# name 2 = sal00: Salinity [PSU]
# name 3 = sbeox0Mg/L: Oxygen, SBE 43 [mg/l]
# name 4 = sbeox0PS: Oxygen, SBE 43 [% saturation]
# name 5 = sigma-t00: Density [sigma-t, Kg/m^3 ]
# name 6 = par: PAR/Irradiance, Biospherical/Licor
# name 7 = prdM: Pressure, Strain Gauge [db]
# name 8 = flECO-AFL: Fluorescence, Wetlab ECO-AFL/FL [mg/m^3]
# name 9 = flag: flag
# span 0 =      1.000,     62.000       
# span 1 =     7.7055,     7.8859       
# span 2 =    31.5360,    31.6885       
# span 3 =    9.23022,   12.79678       
# span 4 =   95.17196,  109.92210       
# span 5 =    24.5747,    24.7155       
# span 6 = 1.5781e+00, 3.7183e+02       
# span 7 =      1.771,     61.853       
# span 8 =     0.6674,     1.5036       
# span 9 = 0.0000e+00, 0.0000e+00       
# interval = meters: 1                  
# start_time = Jul 06 2007 10:16:24
# bad_flag = -9.990e-29
# sensor 0 = Frequency 0  temperature, 5061, 05-Oct-06
# sensor 1 = Frequency 1  conductivity, 5061, 05-Oct-06, cpcor = -9.5700e-08
# sensor 2 = Pressure Number
# sensor 3 = Extrnl Volt  0  irradiance (PAR), primary, 4751, 08/10/06
# sensor 4 = Extrnl Volt  1  Oxygen, SBE, primary, 1081, 10/24/06
# sensor 5 = Extrnl Volt  2  WET Labs, ECO_AFL
# sensor 6 = Extrnl Volt  3  userpoly 0, 0627, 10/11/06
# datcnv_date = Oct 15 2007 14:49:44, 5.37e
# datcnv_in = I:\bob d\OTF_GEM\2007\ctd-07026.hex I:\Willette\OTF\CTD\5061.con
# datcnv_skipover = 0
# filter_date = Oct 15 2007 15:02:22, 5.37e
# filter_in = I:\Willette\OTF\CTD\2007\CTD Data\ctd-07026.cnv
# filter_low_pass_tc_A = 1.000
# filter_low_pass_tc_B = 0.150
# filter_low_pass_A_vars = prdM
# filter_low_pass_B_vars =
# loopedit_date = Oct 15 2007 15:06:45, 5.37e
# loopedit_in = I:\Willette\OTF\CTD\2007\CTD Data\ctd-07026.cnv
# loopedit_minVelocity = 0.250                                                                                            
# loopedit_surfaceSoak: minDepth = 5.0, maxDepth = 20, useDeckPress = 1                                                   
# loopedit_excl_bad_scans = yes
# alignctd_date = Oct 15 2007 15:14:13, 5.37e
# alignctd_in = I:\Willette\OTF\CTD\2007\CTD Data\ctd-07026.cnv
# alignctd_adv = tv290C 0.500, sbeox0Mg/L 4.000, sbeox0PS 4.000                                                                                                                                                                      
# binavg_date = Oct 15 2007 15:18:42, 5.37e
# binavg_in = I:\Willette\OTF\CTD\2007\CTD Data\ctd-07026.cnv
# binavg_bintype = meters
# binavg_binsize = 1
# binavg_excl_bad_scans = yes
# binavg_skipover = 0
# binavg_surface_bin = no, min = 0.000, max = 0.000, value = 0.000
# file_type = ascii
*END*
      5.000     7.8761    31.6776    9.27484   95.65259    24.6816 1.7063e+02      5.630     0.8198 0.0000e+00
      6.000     7.8375    31.5847    9.31005   96.00899    24.6125 1.9388e+02      7.082     0.8501 0.0000e+00
      7.000     7.8278    31.5756    9.27371   95.62597    24.6074 1.7081e+02      7.888     0.8792 0.0000e+00
      8.000     7.8246    31.5780    9.23022   95.17196    24.6109 1.4493e+02      8.657     0.9573 0.0000e+00
      9.000     7.8201    31.5829    9.24833   95.35654    24.6158 1.2239e+02      9.489     1.0111 0.0000e+00
     10.000     7.8092    31.5804    9.30627   95.93750    24.6142 1.0153e+02     10.390     1.0468 0.0000e+00
     11.000     7.8037    31.5809    9.43929   97.29954    24.6153 8.6717e+01     11.204     1.0635 0.0000e+00
     12.000     7.8049    31.5888    9.58666   98.81515    24.6229 7.5140e+01     11.917     1.0894 0.0000e+00
     13.000     7.8050    31.5996    9.69438   99.92371    24.6322 6.5253e+01     12.725     1.1028 0.0000e+00
     14.000     7.7979    31.6025    9.77846  100.78888    24.6342 5.9951e+01     13.875     1.0938 0.0000e+00
     15.000     7.7994    31.6095    9.82670  101.28347    24.6405 5.2544e+01     14.912     1.1388 0.0000e+00
     16.000     7.7928    31.6091    9.87903  101.82117    24.6401 4.3136e+01     16.211     1.1720 0.0000e+00
     17.000     7.7923    31.6052    9.90822  102.11731    24.6375 3.4208e+01     17.116     1.0892 0.0000e+00
     18.000     7.7895    31.6192    9.93506  102.38401    24.6491 2.6472e+01     18.151     1.1346 0.0000e+00
     19.000     7.7870    31.6083    9.94900  102.51922    24.6407 2.1418e+01     19.192     1.1051 0.0000e+00
     20.000     7.7835    31.6100    9.96166  102.64792    24.6425 1.7987e+01     20.066     1.0565 0.0000e+00
     21.000     7.7764    31.6114    9.97052  102.73647    24.6438 1.5231e+01     20.997     1.0948 0.0000e+00
     22.000     7.7744    31.6011    9.97899  102.79472    24.6366 1.3280e+01     21.872     0.9854 0.0000e+00
     23.000     7.7734    31.6063    9.98048  102.80258    24.6413 1.1535e+01     22.684     0.9838 0.0000e+00
     24.000     7.7721    31.6074    9.99170  102.90589    24.6425 1.0044e+01     23.982     1.1965 0.0000e+00
     25.000     7.7691    31.6089   10.01339  103.12257    24.6440 8.9211e+00     25.620     1.1237 0.0000e+00
     26.000     7.7625    31.6099   10.01799  103.16507    24.6449 7.9338e+00     26.730     1.1257 0.0000e+00
     27.000     7.7584    31.6132   10.02514  103.23575    24.6483 7.1006e+00     27.688     1.0201 0.0000e+00
     28.000     7.7576    31.6153   10.03876  103.37411    24.6505 6.3884e+00     28.708     1.0425 0.0000e+00
     29.000     7.7566    31.6197   10.02456  103.22672    24.6545 5.7214e+00     29.423     0.9437 0.0000e+00
     30.000     7.7429    31.6183   10.03770  103.36147    24.6533 5.0938e+00     30.210     1.0349 0.0000e+00
     31.000     7.7381    31.6236   10.03724  103.35575    24.6587 4.5397e+00     31.065     1.0291 0.0000e+00
     32.000     7.7331    31.6319   10.03897  103.37138    24.6666 4.0685e+00     31.932     1.0060 0.0000e+00
     33.000     7.7304    31.6348   10.04045  103.38562    24.6694 3.6769e+00     32.925     1.0587 0.0000e+00
     34.000     7.7277    31.6387   10.04570  103.43781    24.6731 3.3634e+00     34.073     1.0636 0.0000e+00
     35.000     7.7247    31.6418   10.04333  103.41268    24.6759 3.1225e+00     35.202     1.0598 0.0000e+00
     36.000     7.7218    31.6461   10.03996  103.37954    24.6797 2.9423e+00     36.426     1.1062 0.0000e+00
     37.000     7.7198    31.6492   10.04238  103.40227    24.6825 2.7697e+00     37.567     1.0237 0.0000e+00
     38.000     7.7185    31.6516   10.03720  103.34733    24.6846 2.6080e+00     38.650     1.0018 0.0000e+00
     39.000     7.7176    31.6542   10.04195  103.39635    24.6868 2.4619e+00     39.566     1.0925 0.0000e+00
     40.000     7.7156    31.6556   10.04766  103.45514    24.6881 2.3336e+00     40.610     1.0464 0.0000e+00
     41.000     7.7142    31.6580   10.04220  103.39938    24.6902 2.2272e+00     41.504     1.0951 0.0000e+00
     42.000     7.7119    31.6614   10.04016  103.37924    24.6930 2.1268e+00     42.407     0.9741 0.0000e+00
     43.000     7.7110    31.6680   10.04193  103.39643    24.6985 2.0421e+00     43.464     1.1017 0.0000e+00
     44.000     7.7117    31.6700   10.04030  103.37984    24.7004 1.9702e+00     44.323     1.0180 0.0000e+00
     45.000     7.7128    31.6702   10.05002  103.47988    24.7005 1.9061e+00     45.319     1.0494 0.0000e+00
     46.000     7.7099    31.6673   10.04060  103.38319    24.6981 1.8567e+00     46.257     1.1060 0.0000e+00
     47.000     7.7079    31.6739   10.04325  103.41080    24.7035 1.8172e+00     47.301     1.2698 0.0000e+00
     48.000     7.7070    31.6797   10.04949  103.47544    24.7083 1.7829e+00     48.253     1.0206 0.0000e+00
     49.000     7.7070    31.6822   10.04535  103.43347    24.7105 1.7529e+00     49.461     1.0658 0.0000e+00
     50.000     7.7072    31.6822   10.05058  103.48764    24.7105 1.7273e+00     50.502     1.0987 0.0000e+00
     51.000     7.7064    31.6817   10.03595  103.33813    24.7100 1.7042e+00     51.686     1.0291 0.0000e+00
     52.000     7.7056    31.6841   10.02720  103.25172    24.7120 1.6835e+00     52.622     1.0222 0.0000e+00
     53.000     7.7055    31.6869   10.02112  103.18949    24.7144 1.6654e+00     53.591     1.0637 0.0000e+00
     54.000     7.7056    31.6882   10.02297  103.20565    24.7154 1.6490e+00     54.576     1.0958 0.0000e+00
     55.000     7.7057    31.6883   10.02555  103.23138    24.7155 1.6346e+00     55.505     0.9640 0.0000e+00
     56.000     7.7058    31.6880   10.02985  103.27542    24.7152 1.6228e+00     56.408     1.0392 0.0000e+00
     57.000     7.7059    31.6876   10.03167  103.29463    24.7149 1.6128e+00     57.329     1.0405 0.0000e+00
     58.000     7.7063    31.6885   10.02616  103.23967    24.7155 1.6048e+00     58.161     0.9941 0.0000e+00
     59.000     7.7064    31.6881   10.02822  103.25978    24.7152 1.5984e+00     58.968     1.1258 0.0000e+00
     60.000     7.7065    31.6878   10.03560  103.33711    24.7150 1.5918e+00     59.751     1.2727 0.0000e+00
     61.000     7.7071    31.6875   10.04253  103.40794    24.7147 1.5861e+00     60.513     0.9038 0.0000e+00
     62.000     7.7085    31.6873   10.04033  103.38359    24.7143 1.5781e+00     61.853     1.2696 0.0000e+00
     61.000     7.7075    31.6877   10.06265  103.61094    24.7148 1.5814e+00     61.000     1.2081 0.0000e+00
     60.000     7.7077    31.6877   10.05571  103.53872    24.7147 1.5881e+00     60.039     1.1398 0.0000e+00
     59.000     7.7075    31.6879   10.05890  103.57124    24.7148 1.5959e+00     59.206     1.0668 0.0000e+00
     58.000     7.7072    31.6874   10.06433  103.62720    24.7145 1.6035e+00     58.421     1.0797 0.0000e+00
     57.000     7.7066    31.6865   10.06052  103.58745    24.7138 1.6112e+00     57.373     1.0135 0.0000e+00
     56.000     7.7065    31.6871   10.06361  103.61897    24.7144 1.6209e+00     56.507     1.1344 0.0000e+00
     55.000     7.7061    31.6873   10.06640  103.64716    24.7146 1.6323e+00     55.439     1.0838 0.0000e+00
     54.000     7.7060    31.6881   10.08062  103.79328    24.7153 1.6439e+00     54.528     1.0888 0.0000e+00
     53.000     7.7058    31.6882   10.08145  103.80200    24.7153 1.6572e+00     53.492     1.0756 0.0000e+00
     52.000     7.7060    31.6876   10.08290  103.81779    24.7149 1.6744e+00     52.538     1.0907 0.0000e+00
     51.000     7.7062    31.6861   10.08221  103.81047    24.7137 1.6946e+00     51.428     1.1472 0.0000e+00
     50.000     7.7061    31.6856   10.08515  103.84057    24.7133 1.7206e+00     50.577     1.5036 0.0000e+00
     49.000     7.7062    31.6851   10.08881  103.87817    24.7129 1.7523e+00     49.372     1.0201 0.0000e+00
     48.000     7.7059    31.6847   10.09470  103.94041    24.7125 1.7910e+00     48.490     1.1224 0.0000e+00
     47.000     7.7058    31.6847   10.09978  103.99463    24.7126 1.8305e+00     47.449     1.0890 0.0000e+00
     46.000     7.7065    31.6844   10.10168  104.01542    24.7124 1.8685e+00     46.460     1.1341 0.0000e+00
     45.000     7.7075    31.6820   10.10835  104.08776    24.7104 1.9070e+00     45.340     1.1431 0.0000e+00
     44.000     7.7076    31.6804   10.10965  104.10497    24.7090 1.9656e+00     44.387     1.0592 0.0000e+00
     43.000     7.7082    31.6793   10.11090  104.12114    24.7081 2.0388e+00     43.352     1.0393 0.0000e+00
     42.000     7.7101    31.6769   10.12216  104.24146    24.7062 2.1308e+00     42.383     1.0395 0.0000e+00
     41.000     7.7124    31.6702   10.12035  104.22672    24.7006 2.2313e+00     41.400     0.9640 0.0000e+00
     40.000     7.7144    31.6635   10.11846  104.20928    24.6950 2.3487e+00     40.326     1.1367 0.0000e+00
     39.000     7.7155    31.6605   10.11904  104.21855    24.6924 2.4795e+00     39.413     1.0514 0.0000e+00
     38.000     7.7182    31.6576   10.11734  104.20223    24.6899 2.6363e+00     38.343     1.1762 0.0000e+00
     37.000     7.7210    31.6528   10.11905  104.22585    24.6859 2.8515e+00     37.314     1.2081 0.0000e+00
     36.000     7.7231    31.6489   10.12479  104.29186    24.6824 3.1406e+00     36.346     1.0012 0.0000e+00
     35.000     7.7259    31.6455   10.12682  104.32033    24.6794 3.4625e+00     35.303     1.2874 0.0000e+00
     34.000     7.7286    31.6419   10.12849  104.34693    24.6762 3.7704e+00     34.291     1.0739 0.0000e+00
     33.000     7.7300    31.6389   10.12277  104.30620    24.6735 4.0681e+00     33.294     1.1346 0.0000e+00
     32.000     7.7315    31.6365   10.13437  104.44197    24.6715 4.4121e+00     32.284     1.0784 0.0000e+00
     31.000     7.7324    31.6358   10.13016  104.40660    24.6706 4.8181e+00     31.255     1.0596 0.0000e+00
     30.000     7.7348    31.6349   10.13124  104.42262    24.6698 5.3570e+00     30.265     1.0538 0.0000e+00
     29.000     7.7383    31.6329   10.13528  104.46934    24.6680 6.0581e+00     29.134     1.1399 0.0000e+00
     28.000     7.7421    31.6310   10.13871  104.50765    24.6660 7.0014e+00     28.255     1.2496 0.0000e+00
     27.000     7.7457    31.6270   10.15598  104.68757    24.6622 8.2706e+00     27.133     0.8743 0.0000e+00
     26.000     7.7518    31.6255   10.15847  104.71449    24.6607 9.6629e+00     26.231     1.0018 0.0000e+00
     25.000     7.7614    31.6214   10.16763  104.80994    24.6566 1.1309e+01     25.192     1.0040 0.0000e+00
     24.000     7.7675    31.6157   10.17597  104.89820    24.6509 1.3163e+01     24.251     1.0639 0.0000e+00
     23.000     7.7709    31.6101   10.18732  105.02057    24.6454 1.5432e+01     23.201     1.1585 0.0000e+00
     22.000     7.7735    31.6076   10.19547  105.11033    24.6430 1.8106e+01     22.131     1.0558 0.0000e+00
     21.000     7.7757    31.6054   10.20954  105.25988    24.6410 2.1444e+01     21.203     1.0000 0.0000e+00
     20.000     7.7778    31.6024   10.22405  105.41456    24.6383 2.5118e+01     20.120     1.1181 0.0000e+00
     19.000     7.7788    31.6008   10.23590  105.54163    24.6367 2.8840e+01     19.231     1.0710 0.0000e+00
     18.000     7.7800    31.5987   10.25815  105.77512    24.6349 3.2603e+01     18.088     1.1221 0.0000e+00
     17.000     7.7805    31.5970   10.26289  105.82763    24.6335 3.7186e+01     17.280     1.2112 0.0000e+00
     16.000     7.7819    31.5958   10.28011  106.01110    24.6324 4.3524e+01     16.100     1.1639 0.0000e+00
     15.000     7.7851    31.5943   10.29495  106.16850    24.6311 5.1031e+01     15.216     1.0435 0.0000e+00
     14.000     7.7884    31.5904   10.32124  106.45809    24.6276 5.9818e+01     14.171     1.1130 0.0000e+00
     13.000     7.7911    31.5870   10.35503  106.82201    24.6245 6.9350e+01     13.224     1.1147 0.0000e+00
     12.000     7.7954    31.5830   10.43933  107.70189    24.6209 7.9942e+01     12.220     1.1712 0.0000e+00
     11.000     7.7988    31.5769   10.50058  108.33712    24.6154 9.2447e+01     11.114     1.1090 0.0000e+00
     10.000     7.8011    31.5733   10.55971  108.97384    24.6122 1.1123e+02     10.149     1.2200 0.0000e+00
      9.000     7.8042    31.5700   10.64651  109.92210    24.6093 1.3368e+02      9.114     1.3996 0.0000e+00
      8.000     7.8070    31.5666   10.61371  109.62627    24.6062 1.5500e+02      8.131     1.2886 0.0000e+00
      7.000     7.8132    31.5632   10.50263  107.47258    24.6031 1.5783e+02      7.102     1.1596 0.0000e+00
      6.000     7.8224    31.5599   10.68946  105.83071    24.6000 1.5826e+02      6.207     1.0059 0.0000e+00
      5.000     7.8312    31.5488   12.79678  104.80188    24.5894 1.5332e+02      5.113     1.0065 0.0000e+00
      4.000     7.8332    31.5443 -9.990e-29 -9.990e-29    24.5850 1.5330e+02      4.249     0.9508 0.0000e+00
      3.000     7.8371    31.5420 -9.990e-29 -9.990e-29    24.5828 1.5396e+02      3.335     0.9432 0.0000e+00
      2.000     7.8572    31.5422 -9.990e-29 -9.990e-29    24.5824 1.6402e+02      2.517     0.8272 0.0000e+00
      1.000     7.8859    31.5360 -9.990e-29 -9.990e-29    24.5747 3.7183e+02      1.771     0.6674 0.0000e+00
