* Sea-Bird SBE19plus Data File:
* FileName = C:\data\otf\2007\ctd-07129.hex
* Software Version 1.55
* Temperature SN =  5061
* Conductivity SN =  5061
* System UpLoad Time = Aug 15 2007 17:23:45
* ds
* SeacatPlus V 1.6a  SERIAL NO. 5061    15 Aug 2007  15:31:53
* vbatt = 10.9, vlith =  8.7, ioper =  61.6 ma, ipump =  57.5 ma, 
* iext01 =  95.2 ma
* iext23 =  58.1 ma
* 
* status = not logging
* number of scans to average = 1
* samples = 153039, free = 288466, casts = 154
* mode = profile, minimum cond freq = 3000, pump delay = 60 sec
* autorun = no, ignore magnetic switch = no
* battery type = alkaline, battery cutoff =  7.3 volts
* pressure sensor = strain gauge, range = 870.0
* SBE 38 = no, Gas Tension Device = no
* Ext Volt 0 = yes, Ext Volt 1 = yes, Ext Volt 2 = yes, Ext Volt 3 = yes
* echo commands = yes
* output format = raw HEX
* S>
* 
* SeacatPlus V 1.6a  SERIAL NO. 5061    15 Aug 2007  15:32:18
* temperature:  05-oct-06
*     TA0 = 1.254184e-03
*     TA1 = 2.596730e-04
*     TA2 = 5.165612e-07
*     TA3 = 1.318931e-07
*     TOFFSET = 0.000000e+00
* conductivity:  05-oct-06
*     G = -9.978144e-01
*     H = 1.555200e-01
*     I = -4.839108e-04
*     J = 6.121100e-05
*     CF0 = 2.539936e+03
*     CPCOR = -9.570000e-08
*     CTCOR = 3.250000e-06
*     CSLOPE = 1.000000e+00
* pressure S/N = 2362539, range = 870 psia:  24-aug-06
*     PA0 = 2.171091e-01
*     PA1 = 2.647085e-03
*     PA2 = 1.419397e-11
*     PTCA0 = 5.242437e+05
*     PTCA1 = 7.545345e+00
*     PTCA2 = -1.835354e-01
*     PTCB0 = 2.537125e+01
*     PTCB1 = -1.750000e-03
*     PTCB2 = 0.000000e+00
*     PTEMPA0 = -5.753989e+01
*     PTEMPA1 = 5.235813e+01
*     PTEMPA2 = -4.015521e-02
*     POFFSET = 0.000000e+00
* volt 0: offset = -4.682842e-02, slope = 1.249147e+00
* volt 1: offset = -4.695158e-02, slope = 1.248145e+00
* volt 2: offset = -4.685263e-02, slope = 1.248783e+00
* volt 3: offset = -4.690316e-02, slope = 1.249508e+00
*     EXTFREQSF = 1.000002e+00
* dh
* cast 129 26 Jul 2007 06:05:08 samples 126279 to 127072, avg = 1, stop = mag switch
* S> 
# nquan = 10
# nvalues = 85                          
# units = specified
# name 0 = depSM: Depth [salt water, m]
# name 1 = tv290C: Temperature [ITS-90, deg C]
# name 2 = sal00: Salinity [PSU]
# name 3 = sbeox0Mg/L: Oxygen, SBE 43 [mg/l]
# name 4 = sbeox0PS: Oxygen, SBE 43 [% saturation]
# name 5 = sigma-t00: Density [sigma-t, Kg/m^3 ]
# name 6 = par: PAR/Irradiance, Biospherical/Licor
# name 7 = prdM: Pressure, Strain Gauge [db]
# name 8 = flECO-AFL: Fluorescence, Wetlab ECO-AFL/FL [mg/m^3]
# name 9 = flag: flag
# span 0 =      1.000,     45.000       
# span 1 =     8.8984,     9.0887       
# span 2 =    31.4113,    31.5720       
# span 3 =    8.27313,    9.38115       
# span 4 =   87.63418,   99.56419       
# span 5 =    24.2986,    24.4504       
# span 6 = 1.5737e+00, 3.8460e+01       
# span 7 =      1.090,     45.069       
# span 8 =     1.3449,     2.0135       
# span 9 = 0.0000e+00, 0.0000e+00       
# interval = meters: 1                  
# start_time = Jul 26 2007 06:05:08
# bad_flag = -9.990e-29
# sensor 0 = Frequency 0  temperature, 5061, 05-Oct-06
# sensor 1 = Frequency 1  conductivity, 5061, 05-Oct-06, cpcor = -9.5700e-08
# sensor 2 = Pressure Number
# sensor 3 = Extrnl Volt  0  irradiance (PAR), primary, 4751, 08/10/06
# sensor 4 = Extrnl Volt  1  Oxygen, SBE, primary, 1081, 10/24/06
# sensor 5 = Extrnl Volt  2  WET Labs, ECO_AFL
# sensor 6 = Extrnl Volt  3  userpoly 0, 0627, 10/11/06
# datcnv_date = Oct 15 2007 14:49:52, 5.37e
# datcnv_in = I:\bob d\OTF_GEM\2007\ctd-07129.hex I:\Willette\OTF\CTD\5061.con
# datcnv_skipover = 0
# filter_date = Oct 15 2007 15:02:40, 5.37e
# filter_in = I:\Willette\OTF\CTD\2007\CTD Data\ctd-07129.cnv
# filter_low_pass_tc_A = 1.000
# filter_low_pass_tc_B = 0.150
# filter_low_pass_A_vars = prdM
# filter_low_pass_B_vars =
# loopedit_date = Oct 15 2007 15:06:58, 5.37e
# loopedit_in = I:\Willette\OTF\CTD\2007\CTD Data\ctd-07129.cnv
# loopedit_minVelocity = 0.250                                                                                            
# loopedit_surfaceSoak: minDepth = 5.0, maxDepth = 20, useDeckPress = 1                                                   
# loopedit_excl_bad_scans = yes
# alignctd_date = Oct 15 2007 15:14:23, 5.37e
# alignctd_in = I:\Willette\OTF\CTD\2007\CTD Data\ctd-07129.cnv
# alignctd_adv = tv290C 0.500, sbeox0Mg/L 4.000, sbeox0PS 4.000                                                                                                                                                                      
# binavg_date = Oct 15 2007 15:18:52, 5.37e
# binavg_in = I:\Willette\OTF\CTD\2007\CTD Data\ctd-07129.cnv
# binavg_bintype = meters
# binavg_binsize = 1
# binavg_excl_bad_scans = yes
# binavg_skipover = 0
# binavg_surface_bin = no, min = 0.000, max = 0.000, value = 0.000
# file_type = ascii
*END*
      5.000     9.0317    31.5278    8.27313   87.63418    24.3940 8.2178e+00      5.159     1.8668 0.0000e+00
      6.000     9.0094    31.5311    8.43464   89.31896    24.4009 7.1262e+00      6.084     1.8603 0.0000e+00
      7.000     8.9993    31.5271    8.53544   90.37897    24.3992 6.4445e+00      7.140     1.8237 0.0000e+00
      8.000     8.9869    31.5280    8.58145   90.86813    24.4018 5.7384e+00      8.118     1.8332 0.0000e+00
      9.000     8.9769    31.5304    8.58869   90.94900    24.4055 5.1509e+00      9.086     1.8428 0.0000e+00
     10.000     8.9756    31.5337    8.56011   90.64461    24.4087 4.6627e+00     10.071     1.8133 0.0000e+00
     11.000     8.9767    31.5335    8.61231   91.18530    24.4085 4.2018e+00     11.072     1.7724 0.0000e+00
     12.000     8.9780    31.5354    8.72472   92.36875    24.4098 3.8264e+00     12.138     1.7460 0.0000e+00
     13.000     8.9756    31.5336    8.72685   92.37139    24.4082 3.5309e+00     13.339     1.6830 0.0000e+00
     14.000     8.9697    31.5352    8.76206   92.74395    24.4104 3.2703e+00     14.156     1.5725 0.0000e+00
     15.000     8.9678    31.5417    8.73415   92.44722    24.4161 3.0224e+00     15.120     1.4986 0.0000e+00
     16.000     8.9605    31.5422    8.67782   91.83334    24.4170 2.8226e+00     16.155     1.4831 0.0000e+00
     17.000     8.9539    31.5467    8.67637   91.80833    24.4218 2.6573e+00     17.051     1.4667 0.0000e+00
     18.000     8.9535    31.5537    8.63399   91.35850    24.4278 2.4978e+00     18.077     1.4639 0.0000e+00
     19.000     8.9444    31.5528    8.61287   91.12234    24.4276 2.3637e+00     19.123     1.4332 0.0000e+00
     20.000     8.9354    31.5657    8.70680   92.10077    24.4397 2.2489e+00     20.150     1.4200 0.0000e+00
     21.000     8.9326    31.5648    8.72776   92.32609    24.4393 2.1596e+00     21.295     1.4127 0.0000e+00
     22.000     8.9203    31.5641    8.66714   91.68392    24.4403 2.0854e+00     22.289     1.4033 0.0000e+00
     23.000     8.9201    31.5709    8.75093   92.54530    24.4463 2.0158e+00     23.164     1.4105 0.0000e+00
     24.000     8.9242    31.5707    8.88083   93.91224    24.4459 1.9504e+00     24.318     1.4076 0.0000e+00
     25.000     8.9211    31.5634    8.99000   95.07621    24.4396 1.8984e+00     25.219     1.4320 0.0000e+00
     26.000     8.9094    31.5667    9.05962   95.79850    24.4440 1.8494e+00     26.217     1.3984 0.0000e+00
     27.000     8.9072    31.5679    9.10808   96.31175    24.4461 1.8109e+00     27.337     1.3768 0.0000e+00
     28.000     8.9118    31.5655    9.13120   96.55682    24.4435 1.7782e+00     28.178     1.4138 0.0000e+00
     29.000     8.9032    31.5670    9.15685   96.82875    24.4455 1.7464e+00     29.327     1.4010 0.0000e+00
     30.000     8.9058    31.5684    9.17443   97.01428    24.4467 1.7190e+00     30.340     1.3745 0.0000e+00
     31.000     8.9059    31.5679    9.18687   97.14345    24.4461 1.6973e+00     31.336     1.3723 0.0000e+00
     32.000     8.9064    31.5681    9.19055   97.18257    24.4463 1.6772e+00     32.226     1.4004 0.0000e+00
     33.000     8.9063    31.5672    9.19720   97.25338    24.4454 1.6605e+00     33.275     1.4447 0.0000e+00
     34.000     8.9050    31.5682    9.21096   97.39846    24.4465 1.6468e+00     34.203     1.4074 0.0000e+00
     35.000     8.9051    31.5686    9.22740   97.57127    24.4468 1.6333e+00     35.314     1.3977 0.0000e+00
     36.000     8.9050    31.5685    9.23630   97.66203    24.4468 1.6219e+00     36.407     1.4007 0.0000e+00
     37.000     8.9046    31.5683    9.24323   97.73181    24.4465 1.6125e+00     37.417     1.3734 0.0000e+00
     38.000     8.9025    31.5694    9.24760   97.77551    24.4477 1.6046e+00     38.442     1.4215 0.0000e+00
     39.000     8.9022    31.5695    9.25098   97.81010    24.4479 1.5993e+00     39.413     1.4193 0.0000e+00
     40.000     8.9005    31.5708    9.25408   97.84256    24.4491 1.5927e+00     40.457     1.4245 0.0000e+00
     41.000     8.8996    31.5708    9.26419   97.95043    24.4493 1.5876e+00     41.377     1.4091 0.0000e+00
     42.000     8.8991    31.5713    9.26819   97.99352    24.4498 1.5821e+00     42.325     1.3650 0.0000e+00
     43.000     8.8984    31.5716    9.27098   98.02273    24.4502 1.5776e+00     43.354     1.3449 0.0000e+00
     44.000     8.8990    31.5719    9.27287   98.04177    24.4503 1.5737e+00     44.207     1.3600 0.0000e+00
     45.000     8.8994    31.5720    9.26616   97.97178    24.4504 1.6572e+00     45.069     1.3656 0.0000e+00
     44.000     8.9009    31.5717    9.26522   97.96157    24.4500 1.5746e+00     44.262     1.3507 0.0000e+00
     43.000     8.8999    31.5713    9.26195   97.92665    24.4496 1.5759e+00     43.387     1.3777 0.0000e+00
     42.000     8.8992    31.5718    9.26522   97.96328    24.4502 1.5807e+00     42.409     1.3617 0.0000e+00
     41.000     8.8990    31.5720    9.26610   97.97370    24.4504 1.5861e+00     41.339     1.3928 0.0000e+00
     40.000     8.9001    31.5715    9.27558   98.07470    24.4499 1.5916e+00     40.412     1.3959 0.0000e+00
     39.000     8.9007    31.5712    9.28090   98.12969    24.4495 1.5972e+00     39.416     1.4309 0.0000e+00
     38.000     8.9008    31.5709    9.27884   98.10918    24.4492 1.6040e+00     38.335     1.4035 0.0000e+00
     37.000     8.9006    31.5711    9.28248   98.15032    24.4495 1.6130e+00     37.379     1.4180 0.0000e+00
     36.000     8.9013    31.5708    9.28821   98.21151    24.4492 1.6232e+00     36.288     1.6346 0.0000e+00
     35.000     8.9027    31.5700    9.28683   98.19521    24.4483 1.6336e+00     35.372     1.4457 0.0000e+00
     34.000     8.9024    31.5697    9.28386   98.16945    24.4481 1.6477e+00     34.292     1.4269 0.0000e+00
     33.000     8.9021    31.5700    9.28412   98.17981    24.4484 1.6650e+00     33.362     1.4115 0.0000e+00
     32.000     8.9065    31.5689    9.28286   98.17126    24.4471 1.6818e+00     32.262     1.3890 0.0000e+00
     31.000     8.9103    31.5662    9.28147   98.15605    24.4443 1.7010e+00     31.321     1.4621 0.0000e+00
     30.000     8.9115    31.5650    9.29190   98.26281    24.4431 1.7257e+00     30.301     1.4451 0.0000e+00
     29.000     8.9101    31.5650    9.30431   98.40258    24.4431 1.7574e+00     29.205     1.4370 0.0000e+00
     28.000     8.9097    31.5662    9.30576   98.42231    24.4443 1.7903e+00     28.306     1.4025 0.0000e+00
     27.000     8.9149    31.5639    9.30923   98.45921    24.4419 1.8238e+00     27.279     1.3919 0.0000e+00
     26.000     8.9166    31.5617    9.29975   98.35827    24.4396 1.8663e+00     26.243     1.4304 0.0000e+00
     25.000     8.9165    31.5620    9.30048   98.35570    24.4399 1.9254e+00     25.188     1.4263 0.0000e+00
     24.000     8.9155    31.5617    9.30239   98.37007    24.4397 1.9831e+00     24.229     1.4237 0.0000e+00
     23.000     8.9105    31.5641    9.30211   98.36640    24.4423 2.0451e+00     23.264     1.4446 0.0000e+00
     22.000     8.9075    31.5662    9.30025   98.34474    24.4445 2.1284e+00     22.185     1.4485 0.0000e+00
     21.000     8.9073    31.5667    9.29663   98.31029    24.4449 2.2304e+00     21.201     1.3901 0.0000e+00
     20.000     8.9062    31.5668    9.29921   98.35788    24.4452 2.3434e+00     20.145     1.4560 0.0000e+00
     19.000     8.9084    31.5674    9.30545   98.44168    24.4456 2.4584e+00     19.161     1.4503 0.0000e+00
     18.000     8.9186    31.5616    9.30668   98.46580    24.4396 2.5973e+00     18.225     1.5046 0.0000e+00
     17.000     8.9314    31.5550    9.31109   98.51996    24.4327 2.7847e+00     17.137     1.4870 0.0000e+00
     16.000     8.9352    31.5491    9.31148   98.55333    24.4268 3.0048e+00     16.114     1.5249 0.0000e+00
     15.000     8.9375    31.5511    9.31039   98.55492    24.4286 3.2286e+00     15.178     1.5061 0.0000e+00
     14.000     8.9547    31.5427    9.30382   98.48895    24.4198 3.4877e+00     14.122     1.5266 0.0000e+00
     13.000     8.9625    31.5341    9.31140   98.56677    24.4112 3.8202e+00     13.140     1.5272 0.0000e+00
     12.000     8.9642    31.5311    9.31069   98.55877    24.4085 4.2348e+00     12.101     1.6060 0.0000e+00
     11.000     8.9635    31.5307    9.30817   98.53080    24.4082 4.7118e+00     11.092     1.6448 0.0000e+00
     10.000     8.9633    31.5302    9.31333   98.58531    24.4079 5.2511e+00     10.071     1.5932 0.0000e+00
      9.000     8.9635    31.5285    9.31592   98.62233    24.4066 5.8708e+00      9.115     1.6518 0.0000e+00
      8.000     8.9648    31.5246    9.32939   98.78149    24.4035 6.6631e+00      8.034     1.7138 0.0000e+00
      7.000     8.9708    31.5206    9.33945   98.90829    24.3996 7.6691e+00      7.053     1.8115 0.0000e+00
      6.000     8.9778    31.5176    9.34496   98.99243    24.3961 8.8266e+00      6.115     1.8195 0.0000e+00
      5.000     8.9898    31.5159    9.34924   99.07233    24.3933 1.0140e+01      4.993     1.9823 0.0000e+00
      4.000     9.0043    31.5086    9.36053   99.20789    24.3854 1.1930e+01      4.041     1.8885 0.0000e+00
      3.000     9.0210    31.4952    9.37293   99.39682    24.3723 1.4139e+01      3.048     1.9415 0.0000e+00
      2.000     9.0342    31.4810    9.38115   99.56419    24.3592 1.7077e+01      2.008     2.0135 0.0000e+00
      1.000     9.0887    31.4113    9.27318   98.38762    24.2986 3.8460e+01      1.090     2.0021 0.0000e+00
