* Sea-Bird SBE19plus Data File:
* FileName = C:\data\otf\2007\ctd-07078.hex
* Software Version 1.55
* Temperature SN =  5061
* Conductivity SN =  5061
* System UpLoad Time = Aug 15 2007 16:19:07
* ds
* SeacatPlus V 1.6a  SERIAL NO. 5061    15 Aug 2007  15:31:53
* vbatt = 10.9, vlith =  8.7, ioper =  61.6 ma, ipump =  57.5 ma, 
* iext01 =  95.2 ma
* iext23 =  58.1 ma
* 
* status = not logging
* number of scans to average = 1
* samples = 153039, free = 288466, casts = 154
* mode = profile, minimum cond freq = 3000, pump delay = 60 sec
* autorun = no, ignore magnetic switch = no
* battery type = alkaline, battery cutoff =  7.3 volts
* pressure sensor = strain gauge, range = 870.0
* SBE 38 = no, Gas Tension Device = no
* Ext Volt 0 = yes, Ext Volt 1 = yes, Ext Volt 2 = yes, Ext Volt 3 = yes
* echo commands = yes
* output format = raw HEX
* S>
* 
* SeacatPlus V 1.6a  SERIAL NO. 5061    15 Aug 2007  15:32:18
* temperature:  05-oct-06
*     TA0 = 1.254184e-03
*     TA1 = 2.596730e-04
*     TA2 = 5.165612e-07
*     TA3 = 1.318931e-07
*     TOFFSET = 0.000000e+00
* conductivity:  05-oct-06
*     G = -9.978144e-01
*     H = 1.555200e-01
*     I = -4.839108e-04
*     J = 6.121100e-05
*     CF0 = 2.539936e+03
*     CPCOR = -9.570000e-08
*     CTCOR = 3.250000e-06
*     CSLOPE = 1.000000e+00
* pressure S/N = 2362539, range = 870 psia:  24-aug-06
*     PA0 = 2.171091e-01
*     PA1 = 2.647085e-03
*     PA2 = 1.419397e-11
*     PTCA0 = 5.242437e+05
*     PTCA1 = 7.545345e+00
*     PTCA2 = -1.835354e-01
*     PTCB0 = 2.537125e+01
*     PTCB1 = -1.750000e-03
*     PTCB2 = 0.000000e+00
*     PTEMPA0 = -5.753989e+01
*     PTEMPA1 = 5.235813e+01
*     PTEMPA2 = -4.015521e-02
*     POFFSET = 0.000000e+00
* volt 0: offset = -4.682842e-02, slope = 1.249147e+00
* volt 1: offset = -4.695158e-02, slope = 1.248145e+00
* volt 2: offset = -4.685263e-02, slope = 1.248783e+00
* volt 3: offset = -4.690316e-02, slope = 1.249508e+00
*     EXTFREQSF = 1.000002e+00
* dh
* cast  78 15 Jul 2007 13:17:43 samples 50432 to 50744, avg = 4, stop = mag switch
* S> 
# nquan = 10
# nvalues = 175                         
# units = specified
# name 0 = depSM: Depth [salt water, m]
# name 1 = tv290C: Temperature [ITS-90, deg C]
# name 2 = sal00: Salinity [PSU]
# name 3 = sbeox0Mg/L: Oxygen, SBE 43 [mg/l]
# name 4 = sbeox0PS: Oxygen, SBE 43 [% saturation]
# name 5 = sigma-t00: Density [sigma-t, Kg/m^3 ]
# name 6 = par: PAR/Irradiance, Biospherical/Licor
# name 7 = prdM: Pressure, Strain Gauge [db]
# name 8 = flECO-AFL: Fluorescence, Wetlab ECO-AFL/FL [mg/m^3]
# name 9 = flag: flag
# span 0 =      1.000,     89.000       
# span 1 =     8.8810,     9.2366       
# span 2 =    30.7734,    31.0306       
# span 3 =    9.09241,   11.02969       
# span 4 =   96.17282,  101.75067       
# span 5 =    23.7788,    24.0296       
# span 6 = 1.5450e+00, 8.7047e+02       
# span 7 =      1.804,     89.417       
# span 8 =     0.5226,     1.6701       
# span 9 = 0.0000e+00, 0.0000e+00       
# interval = meters: 1                  
# start_time = Jul 15 2007 13:17:43
# bad_flag = -9.990e-29
# sensor 0 = Frequency 0  temperature, 5061, 05-Oct-06
# sensor 1 = Frequency 1  conductivity, 5061, 05-Oct-06, cpcor = -9.5700e-08
# sensor 2 = Pressure Number
# sensor 3 = Extrnl Volt  0  irradiance (PAR), primary, 4751, 08/10/06
# sensor 4 = Extrnl Volt  1  Oxygen, SBE, primary, 1081, 10/24/06
# sensor 5 = Extrnl Volt  2  WET Labs, ECO_AFL
# sensor 6 = Extrnl Volt  3  userpoly 0, 0627, 10/11/06
# datcnv_date = Oct 15 2007 14:49:46, 5.37e
# datcnv_in = I:\bob d\OTF_GEM\2007\ctd-07078.hex I:\Willette\OTF\CTD\5061.con
# datcnv_skipover = 0
# filter_date = Oct 15 2007 15:02:26, 5.37e
# filter_in = I:\Willette\OTF\CTD\2007\CTD Data\ctd-07078.cnv
# filter_low_pass_tc_A = 1.000
# filter_low_pass_tc_B = 0.150
# filter_low_pass_A_vars = prdM
# filter_low_pass_B_vars =
# loopedit_date = Oct 15 2007 15:06:48, 5.37e
# loopedit_in = I:\Willette\OTF\CTD\2007\CTD Data\ctd-07078.cnv
# loopedit_minVelocity = 0.250                                                                                            
# loopedit_surfaceSoak: minDepth = 5.0, maxDepth = 20, useDeckPress = 1                                                   
# loopedit_excl_bad_scans = yes
# alignctd_date = Oct 15 2007 15:14:16, 5.37e
# alignctd_in = I:\Willette\OTF\CTD\2007\CTD Data\ctd-07078.cnv
# alignctd_adv = tv290C 0.500, sbeox0Mg/L 4.000, sbeox0PS 4.000                                                                                                                                                                      
# binavg_date = Oct 15 2007 15:18:45, 5.37e
# binavg_in = I:\Willette\OTF\CTD\2007\CTD Data\ctd-07078.cnv
# binavg_bintype = meters
# binavg_binsize = 1
# binavg_excl_bad_scans = yes
# binavg_skipover = 0
# binavg_surface_bin = no, min = 0.000, max = 0.000, value = 0.000
# file_type = ascii
*END*
      3.000     9.1887    30.8172    9.31739   98.49806    23.8140 2.5921e+02      4.603     0.5795 0.0000e+00
      4.000     9.1831    30.8075    9.27274   98.06409    23.8070 1.6840e+02      5.503     0.5615 0.0000e+00
      5.000 -9.990e-29 -9.990e-29 -9.990e-29 -9.990e-29 -9.990e-29 -9.990e-29 -9.990e-29 -9.990e-29 -9.990e-29
      6.000     9.1780    30.8020    9.19107   97.22978    23.8043 7.5703e+01      6.702     0.5942 0.0000e+00
      7.000     9.1646    30.8123    9.09241   96.19191    23.8135 2.7470e+01      8.094     0.6197 0.0000e+00
      8.000     9.1685    30.7986    9.11579   96.43307    23.8031 1.8753e+01      9.001     0.5808 0.0000e+00
      9.000     9.1659    30.8047    9.14949   96.78164    23.8092 1.2774e+01      9.773     0.5948 0.0000e+00
     10.000     9.1586    30.8071    9.16486   96.92181    23.8111 8.0337e+00     10.765     0.5905 0.0000e+00
     11.000     9.1552    30.8059    9.13404   96.57960    23.8104 5.3800e+00     11.767     0.6034 0.0000e+00
     12.000 -9.990e-29 -9.990e-29 -9.990e-29 -9.990e-29 -9.990e-29 -9.990e-29 -9.990e-29 -9.990e-29 -9.990e-29
     13.000     9.1539    30.8067    9.14756   96.69296    23.8126 2.8326e+00     13.501     0.6247 0.0000e+00
     14.000     9.1451    30.8095    9.15314   96.74033    23.8150 2.3252e+00     14.443     0.6168 0.0000e+00
     15.000 -9.990e-29 -9.990e-29 -9.990e-29 -9.990e-29 -9.990e-29 -9.990e-29 -9.990e-29 -9.990e-29 -9.990e-29
     16.000     9.1343    30.8068    9.10322   96.17282    23.8131 1.8309e+00     16.057     0.6751 0.0000e+00
     17.000     9.1312    30.8148    9.15915   96.74897    23.8206 1.7101e+00     17.021     0.6591 0.0000e+00
     18.000 -9.990e-29 -9.990e-29 -9.990e-29 -9.990e-29 -9.990e-29 -9.990e-29 -9.990e-29 -9.990e-29 -9.990e-29
     19.000     9.1291    30.8248    9.29375   98.16476    23.8302 1.6057e+00     18.627     0.6400 0.0000e+00
     20.000     9.1174    30.8261    9.36207   98.88862    23.8317 1.5778e+00     19.733     0.6312 0.0000e+00
     21.000 -9.990e-29 -9.990e-29 -9.990e-29 -9.990e-29 -9.990e-29 -9.990e-29 -9.990e-29 -9.990e-29 -9.990e-29
     22.000     9.1032    30.8272    9.42151   99.51125    23.8328 1.5587e+00     21.118     0.6201 0.0000e+00
     23.000     9.1240    30.8383    9.45730   99.89724    23.8437 1.5520e+00     22.378     0.6323 0.0000e+00
     24.000     9.1329    30.8505    9.47863  100.13675    23.8549 1.5493e+00     23.408     0.6323 0.0000e+00
     25.000     9.1367    30.8383    9.49868  100.34924    23.8424 1.5484e+00     24.556     0.6339 0.0000e+00
     26.000     9.1343    30.8285    9.51304  100.50643    23.8327 1.5474e+00     25.885     0.6505 0.0000e+00
     27.000     9.1252    30.8234    9.52409  100.62681    23.8284 1.5467e+00     27.046     0.6512 0.0000e+00
     28.000     9.1039    30.8262    9.52825  100.66734    23.8313 1.5470e+00     28.035     0.6935 0.0000e+00
     29.000     9.0943    30.8416    9.53255  100.70652    23.8456 1.5465e+00     29.173     0.6646 0.0000e+00
     30.000     9.0832    30.8475    9.53750  100.75122    23.8521 1.5463e+00     30.159     0.6902 0.0000e+00
     31.000     9.0670    30.8627    9.54669  100.83598    23.8662 1.5462e+00     31.188     0.7044 0.0000e+00
     32.000     9.0518    30.8726    9.55418  100.89956    23.8759 1.5462e+00     32.385     0.7028 0.0000e+00
     33.000     9.0508    30.8766    9.55659  100.91753    23.8815 1.5459e+00     33.313     0.6971 0.0000e+00
     34.000     9.0523    30.8813    9.56111  100.97251    23.8870 1.5459e+00     34.390     0.7041 0.0000e+00
     35.000     9.0490    30.8804    9.56950  101.06710    23.8864 1.5459e+00     35.339     1.6701 0.0000e+00
     36.000     9.0527    30.8796    9.57587  101.13630    23.8855 1.5462e+00     36.150     1.5934 0.0000e+00
     37.000     9.0608    30.8816    9.57566  101.13786    23.8875 1.5465e+00     37.087     1.5264 0.0000e+00
     38.000     9.0627    30.8781    9.57567  101.14004    23.8841 1.5462e+00     38.236     1.4174 0.0000e+00
     39.000     9.0652    30.8694    9.57909  101.17919    23.8760 1.5459e+00     39.173     1.3633 0.0000e+00
     40.000     9.0666    30.8688    9.58002  101.14029    23.8753 1.5460e+00     40.373     1.2595 0.0000e+00
     41.000     9.0662    30.8669    9.58089  101.13435    23.8735 1.5461e+00     41.381     1.2129 0.0000e+00
     42.000     9.0625    30.8660    9.58458  101.16146    23.8727 1.5460e+00     42.368     1.1742 0.0000e+00
     43.000     9.0572    30.8663    9.58862  101.23044    23.8730 1.5460e+00     43.509     1.1514 0.0000e+00
     44.000     9.0489    30.8710    9.59385  101.31189    23.8776 1.5461e+00     44.547     1.1957 0.0000e+00
     45.000     9.0422    30.8743    9.59403  101.32430    23.8807 1.5463e+00     45.444     1.1745 0.0000e+00
     46.000     9.0375    30.8813    9.59334  101.31931    23.8875 1.5461e+00     46.447     1.1508 0.0000e+00
     47.000     9.0430    30.8889    9.59493  101.34905    23.8947 1.5458e+00     47.676     1.1305 0.0000e+00
     48.000     9.0460    30.8905    9.59749  101.39989    23.8964 1.5458e+00     48.470     1.0932 0.0000e+00
     49.000     9.0474    30.8864    9.59929  101.41901    23.8923 1.5459e+00     49.531     1.1082 0.0000e+00
     50.000     9.0502    30.8821    9.60027  101.39463    23.8882 1.5458e+00     50.522     1.0880 0.0000e+00
     51.000     9.0502    30.8812    9.60229  101.38611    23.8875 1.5458e+00     51.365     1.0121 0.0000e+00
     52.000     9.0528    30.8788    9.60062  101.34366    23.8852 1.5458e+00     52.434     0.9830 0.0000e+00
     53.000     9.0237    30.8790    9.60345  101.38777    23.8854 1.5457e+00     53.345     0.9537 0.0000e+00
     54.000     9.0099    30.8762    9.60445  101.39711    23.8828 1.5458e+00     54.115     0.9308 0.0000e+00
     55.000     9.0093    30.9013    9.60632  101.42815    23.9072 1.5458e+00     55.313     0.9352 0.0000e+00
     56.000     9.0279    30.9084    9.61084  101.45754    23.9140 1.5458e+00     56.604     0.8339 0.0000e+00
     57.000     9.0413    30.9152    9.61492  101.43586    23.9205 1.5458e+00     57.586     0.8363 0.0000e+00
     58.000     9.0498    30.8843    9.62348  101.51935    23.8907 1.5460e+00     58.949     0.8386 0.0000e+00
     59.000     9.0476    30.8784    9.61870  101.46755    23.8854 1.5453e+00     59.768     0.8455 0.0000e+00
     60.000     9.0597    30.8783    9.62043  101.44309    23.8853 1.5458e+00     60.752     0.8369 0.0000e+00
     61.000     9.0655    30.8747    9.62116  101.40910    23.8818 1.5459e+00     61.754     0.8192 0.0000e+00
     62.000     9.0566    30.8664    9.62622  101.44774    23.8737 1.5458e+00     62.796     0.8015 0.0000e+00
     63.000     9.0397    30.8624    9.62784  101.46108    23.8699 1.5458e+00     63.750     0.8010 0.0000e+00
     64.000     9.0259    30.8704    9.63249  101.50301    23.8776 1.5458e+00     64.653     0.7634 0.0000e+00
     65.000     9.0232    30.8848    9.63599  101.53297    23.8914 1.5456e+00     65.656     0.7741 0.0000e+00
     66.000     9.0241    30.8975    9.63385  101.50627    23.9036 1.5457e+00     66.643     0.7589 0.0000e+00
     67.000     9.0273    30.8995    9.63664  101.53453    23.9055 1.5455e+00     67.545     0.7444 0.0000e+00
     68.000     9.0313    30.8985    9.64384  101.60978    23.9046 1.5457e+00     68.570     0.7197 0.0000e+00
     69.000     9.0228    30.8952    9.64877  101.65988    23.9014 1.5457e+00     69.561     0.7365 0.0000e+00
     70.000     8.9926    30.8924    9.64971  101.66286    23.8987 1.5455e+00     70.554     0.7147 0.0000e+00
     71.000     8.9812    30.9018    9.65022  101.66239    23.9076 1.5455e+00     71.582     0.7132 0.0000e+00
     72.000     8.9788    30.9311    9.65262  101.67559    23.9356 1.5454e+00     72.566     0.6928 0.0000e+00
     73.000     8.9748    30.9373    9.65752  101.72375    23.9416 1.5457e+00     73.624     0.6918 0.0000e+00
     74.000     8.9275    30.9386    9.65774  101.71971    23.9428 1.5453e+00     74.562     0.6999 0.0000e+00
     75.000     8.9160    30.9464    9.66088  101.75067    23.9496 1.5454e+00     75.647     0.6601 0.0000e+00
     76.000     8.9184    30.9956    9.65458  101.68892    23.9964 1.5455e+00     76.555     0.6553 0.0000e+00
     77.000     8.9124    30.9957    9.63952  101.52645    23.9966 1.5456e+00     77.699     0.6609 0.0000e+00
     78.000     8.9081    30.9983    9.63654  101.49314    23.9990 1.5457e+00     78.638     0.6601 0.0000e+00
     79.000     8.9052    31.0032    9.63847  101.51162    24.0035 1.5456e+00     79.603     0.6660 0.0000e+00
     80.000     8.9043    31.0079    9.64144  101.54150    24.0080 1.5458e+00     80.700     0.6730 0.0000e+00
     81.000     8.9039    31.0097    9.64137  101.54007    24.0096 1.5457e+00     81.649     0.6787 0.0000e+00
     82.000     8.9024    31.0098    9.64560  101.58359    24.0098 1.5458e+00     82.629     0.7015 0.0000e+00
     83.000     8.8972    31.0104    9.64455  101.57272    24.0102 1.5455e+00     83.501     0.7320 0.0000e+00
     84.000     8.8944    31.0119    9.64923  101.62387    24.0117 1.5457e+00     84.375     0.7168 0.0000e+00
     85.000     8.8871    31.0157    9.64879  101.62326    24.0154 1.5457e+00     85.076     0.7090 0.0000e+00
     86.000     8.8862    31.0188    9.64951  101.63207    24.0182 1.5454e+00     85.794     0.7532 0.0000e+00
     87.000     8.8822    31.0266    9.64892  101.62519    24.0257 1.5454e+00     86.591     0.8064 0.0000e+00
     88.000     8.8823    31.0281    9.65116  101.64860    24.0271 1.5458e+00     87.316     0.8326 0.0000e+00
     89.000     8.8810    31.0306    9.64240  101.57953    24.0296 1.5467e+00     89.417     0.9041 0.0000e+00
     88.000     8.8847    31.0292    9.63996  101.56643    24.0280 1.5455e+00     88.242     0.8963 0.0000e+00
     87.000     8.8864    31.0277    9.64017  101.57459    24.0266 1.5456e+00     87.379     0.8515 0.0000e+00
     86.000     8.8981    31.0238    9.64152  101.60031    24.0231 1.5457e+00     86.468     0.7796 0.0000e+00
     85.000     8.9027    31.0158    9.64517  101.64433    24.0152 1.5455e+00     85.527     0.7348 0.0000e+00
     84.000     8.9050    31.0117    9.64082  101.60624    24.0115 1.5452e+00     84.656     0.8193 0.0000e+00
     83.000     8.9051    31.0107    9.63897  101.59542    24.0104 1.5452e+00     83.735     0.7087 0.0000e+00
     82.000     8.9044    31.0103    9.63601  101.56244    24.0101 1.5452e+00     82.710     0.7408 0.0000e+00
     81.000     8.9040    31.0109    9.63869  101.61475    24.0105 1.5455e+00     81.782     0.7951 0.0000e+00
     80.000     8.9056    31.0107    9.63680  101.62794    24.0105 1.5454e+00     80.760     0.7711 0.0000e+00
     79.000     8.9117    31.0085    9.63727  101.67089    24.0086 1.5451e+00     79.697     0.7081 0.0000e+00
     78.000     8.9157    31.0034    9.62926  101.60249    24.0039 1.5455e+00     78.779     0.7356 0.0000e+00
     77.000     8.9186    30.9978    9.61599  101.45849    23.9987 1.5453e+00     77.797     0.6820 0.0000e+00
     76.000     8.9243    30.9946    9.61875  101.48362    23.9958 1.5452e+00     76.753     0.6874 0.0000e+00
     75.000     8.9261    30.9896    9.62093  101.51917    23.9910 1.5453e+00     75.760     0.7115 0.0000e+00
     74.000     8.9306    30.9881    9.61374  101.43488    23.9895 1.5453e+00     74.707     0.6606 0.0000e+00
     73.000     8.9540    30.9827    9.61529  101.44143    23.9846 1.5452e+00     73.684     0.6784 0.0000e+00
     72.000     8.9718    30.9604    9.62168  101.50846    23.9637 1.5455e+00     72.729     0.6909 0.0000e+00
     71.000     8.9895    30.9427    9.61819  101.48103    23.9469 1.5451e+00     71.676     0.6517 0.0000e+00
     70.000     8.9891    30.9299    9.61521  101.46081    23.9348 1.5454e+00     70.718     0.6942 0.0000e+00
     69.000     8.9861    30.9278    9.60337  101.34105    23.9326 1.5453e+00     69.557     0.7080 0.0000e+00
     68.000     8.9924    30.9294    9.60532  101.35883    23.9342 1.5450e+00     68.653     0.6786 0.0000e+00
     67.000     8.9908    30.9216    9.60842  101.40815    23.9268 1.5454e+00     67.525     0.6755 0.0000e+00
     66.000     8.9845    30.9264    9.61248  101.45933    23.9313 1.5453e+00     66.661     0.7359 0.0000e+00
     65.000     8.9828    30.9328    9.61066  101.45099    23.9375 1.5451e+00     65.567     0.6736 0.0000e+00
     64.000     8.9875    30.9336    9.61003  101.45229    23.9383 1.5450e+00     64.588     0.7479 0.0000e+00
     63.000     8.9936    30.9293    9.60292  101.37943    23.9343 1.5451e+00     63.589     0.7142 0.0000e+00
     62.000     8.9989    30.9237    9.59975  101.36825    23.9290 1.5452e+00     62.539     0.6531 0.0000e+00
     61.000     8.9951    30.9193    9.59826  101.35545    23.9247 1.5454e+00     61.542     0.6764 0.0000e+00
     60.000     9.0023    30.9246    9.59366  101.29622    23.9297 1.5455e+00     60.496     0.6591 0.0000e+00
     59.000     9.0094    30.9186    9.59940  101.35731    23.9241 1.5456e+00     59.620     0.6528 0.0000e+00
     58.000     9.0130    30.9093    9.60685  101.45100    23.9152 1.5453e+00     58.486     0.6619 0.0000e+00
     57.000     9.0215    30.9065    9.60019  101.38031    23.9126 1.5456e+00     57.571     0.6370 0.0000e+00
     56.000     9.0223    30.8974    9.60031  101.38688    23.9041 1.5454e+00     56.571     0.6062 0.0000e+00
     55.000     9.0275    30.8970    9.60162  101.40376    23.9037 1.5456e+00     55.549     0.7078 0.0000e+00
     54.000     9.0381    30.8922    9.60370  101.43086    23.8990 1.5456e+00     54.509     0.6558 0.0000e+00
     53.000     9.0373    30.8832    9.59987  101.39520    23.8903 1.5452e+00     53.527     0.6091 0.0000e+00
     52.000     9.0318    30.8835    9.59908  101.38793    23.8906 1.5453e+00     52.522     0.6517 0.0000e+00
     51.000     9.0369    30.8892    9.60399  101.43953    23.8960 1.5452e+00     51.451     0.6561 0.0000e+00
     50.000     9.0410    30.8855    9.60104  101.40634    23.8925 1.5455e+00     50.394     0.6582 0.0000e+00
     49.000     9.0420    30.8829    9.59943  101.39065    23.8899 1.5455e+00     49.422     0.6627 0.0000e+00
     48.000     9.0446    30.8829    9.60407  101.44125    23.8898 1.5453e+00     48.400     0.6756 0.0000e+00
     47.000     9.0463    30.8797    9.61092  101.51476    23.8868 1.5452e+00     47.401     0.6288 0.0000e+00
     46.000     9.0489    30.8785    9.61184  101.52676    23.8856 1.5457e+00     46.351     0.6451 0.0000e+00
     45.000     9.0509    30.8777    9.60867  101.50521    23.8846 1.5456e+00     45.359     0.6666 0.0000e+00
     44.000     9.0507    30.8767    9.60452  101.46645    23.8836 1.5454e+00     44.434     0.6613 0.0000e+00
     43.000     9.0507    30.8767    9.60731  101.49620    23.8835 1.5456e+00     43.360     0.6357 0.0000e+00
     42.000     9.0487    30.8770    9.60724  101.49539    23.8837 1.5453e+00     42.392     0.6990 0.0000e+00
     41.000     9.0497    30.8795    9.60290  101.45002    23.8858 1.5456e+00     41.467     0.6666 0.0000e+00
     40.000     9.0502    30.8799    9.60511  101.47314    23.8861 1.5459e+00     40.422     0.6590 0.0000e+00
     39.000     9.0507    30.8798    9.60673  101.49368    23.8861 1.5454e+00     39.402     0.6465 0.0000e+00
     38.000     9.0512    30.8803    9.60484  101.47499    23.8864 1.5455e+00     38.405     0.6372 0.0000e+00
     37.000     9.0560    30.8797    9.60070  101.44264    23.8857 1.5455e+00     37.404     0.6201 0.0000e+00
     36.000     9.0611    30.8773    9.60633  101.51552    23.8832 1.5455e+00     36.380     0.7054 0.0000e+00
     35.000     9.0615    30.8737    9.61158  101.57897    23.8797 1.5457e+00     35.392     0.6616 0.0000e+00
     34.000     9.0616    30.8726    9.60694  101.54818    23.8786 1.5451e+00     34.316     0.6562 0.0000e+00
     33.000     9.0619    30.8725    9.60551  101.52190    23.8786 1.5455e+00     33.371     0.6777 0.0000e+00
     32.000     9.0617    30.8719    9.60098  101.46238    23.8780 1.5457e+00     32.336     0.6859 0.0000e+00
     31.000     9.0637    30.8723    9.59174  101.37866    23.8784 1.5456e+00     31.317     0.7279 0.0000e+00
     30.000     9.0655    30.8712    9.58823  101.34373    23.8772 1.5457e+00     30.266     0.6805 0.0000e+00
     29.000     9.0748    30.8696    9.59244  101.38894    23.8758 1.5458e+00     29.194     0.7244 0.0000e+00
     28.000     9.0798    30.8647    9.59541  101.43173    23.8709 1.5461e+00     28.274     0.7205 0.0000e+00
     27.000     9.0842    30.8588    9.59434  101.43163    23.8651 1.5463e+00     27.237     0.7465 0.0000e+00
     26.000     9.0920    30.8555    9.59176  101.42279    23.8619 1.5470e+00     26.216     0.7172 0.0000e+00
     25.000     9.0829    30.8494    9.59519  101.45288    23.8560 1.5483e+00     25.228     0.6743 0.0000e+00
     24.000     9.0830    30.8558    9.59516  101.43769    23.8621 1.5498e+00     24.199     0.6829 0.0000e+00
     23.000     9.0894    30.8587    9.59254  101.39684    23.8649 1.5526e+00     23.214     0.6837 0.0000e+00
     22.000     9.0889    30.8514    9.58877  101.36274    23.8578 1.5579e+00     22.210     0.6822 0.0000e+00
     21.000     9.0911    30.8517    9.59260  101.43968    23.8581 1.5664e+00     21.177     0.6812 0.0000e+00
     20.000     9.0967    30.8512    9.59515  101.51864    23.8576 1.5803e+00     20.224     0.6609 0.0000e+00
     19.000     9.1036    30.8448    9.58986  101.47777    23.8517 1.6041e+00     19.185     0.6926 0.0000e+00
     18.000     9.1149    30.8383    9.59160  101.48524    23.8455 1.6474e+00     18.171     0.6895 0.0000e+00
     17.000     9.1112    30.8277    9.59128  101.48773    23.8357 1.7264e+00     17.201     0.6888 0.0000e+00
     16.000     9.1030    30.8278    9.59262  101.51922    23.8360 1.8691e+00     16.195     0.7225 0.0000e+00
     15.000     9.0956    30.8337    9.59428  101.55904    23.8419 2.0944e+00     15.181     0.7108 0.0000e+00
     14.000     9.0996    30.8384    9.58471  101.47636    23.8465 2.4685e+00     14.167     0.6854 0.0000e+00
     13.000     9.1214    30.8362    9.58095  101.43008    23.8444 3.1096e+00     13.144     0.6524 0.0000e+00
     12.000     9.1488    30.8217    9.58828  101.50578    23.8302 4.2299e+00     12.187     0.6214 0.0000e+00
     11.000     9.1529    30.7993    9.57944  101.42128    23.8081 6.0587e+00     11.136     0.6207 0.0000e+00
     10.000     9.1521    30.7949    9.57242  101.38581    23.8039 9.1818e+00     10.115     0.6373 0.0000e+00
      9.000     9.1569    30.7958    9.57523  101.46962    23.8048 1.4366e+01      9.107     0.6478 0.0000e+00
      8.000     9.1685    30.7937    9.51948  100.89988    23.8026 2.2350e+01      8.123     0.6341 0.0000e+00
      7.000     9.1813    30.7877    9.97620   99.65817    23.7962 3.5489e+01      7.112     0.6080 0.0000e+00
      6.000     9.1835    30.7797   11.02969   99.30419    23.7879 5.8649e+01      6.166     0.6512 0.0000e+00
      5.000     9.1808    30.7754 -9.990e-29 -9.990e-29    23.7840 9.8039e+01      5.134     0.6545 0.0000e+00
      4.000     9.1825    30.7768 -9.990e-29 -9.990e-29    23.7855 1.5804e+02      4.226     0.6636 0.0000e+00
      3.000     9.1933    30.7776 -9.990e-29 -9.990e-29    23.7859 2.4293e+02      3.355     0.6647 0.0000e+00
      2.000     9.2144    30.7734 -9.990e-29 -9.990e-29    23.7810 3.6244e+02      2.515     0.5860 0.0000e+00
      1.000     9.2366    30.7746 -9.990e-29 -9.990e-29    23.7788 8.7047e+02      1.804     0.5226 0.0000e+00
