* Sea-Bird SBE19plus Data File:
* FileName = C:\data\otf\2007\ctd-07047.hex
* Software Version 1.55
* Temperature SN =  5061
* Conductivity SN =  5061
* System UpLoad Time = Aug 15 2007 16:09:34
* ds
* SeacatPlus V 1.6a  SERIAL NO. 5061    15 Aug 2007  15:31:53
* vbatt = 10.9, vlith =  8.7, ioper =  61.6 ma, ipump =  57.5 ma, 
* iext01 =  95.2 ma
* iext23 =  58.1 ma
* 
* status = not logging
* number of scans to average = 1
* samples = 153039, free = 288466, casts = 154
* mode = profile, minimum cond freq = 3000, pump delay = 60 sec
* autorun = no, ignore magnetic switch = no
* battery type = alkaline, battery cutoff =  7.3 volts
* pressure sensor = strain gauge, range = 870.0
* SBE 38 = no, Gas Tension Device = no
* Ext Volt 0 = yes, Ext Volt 1 = yes, Ext Volt 2 = yes, Ext Volt 3 = yes
* echo commands = yes
* output format = raw HEX
* S>
* 
* SeacatPlus V 1.6a  SERIAL NO. 5061    15 Aug 2007  15:32:18
* temperature:  05-oct-06
*     TA0 = 1.254184e-03
*     TA1 = 2.596730e-04
*     TA2 = 5.165612e-07
*     TA3 = 1.318931e-07
*     TOFFSET = 0.000000e+00
* conductivity:  05-oct-06
*     G = -9.978144e-01
*     H = 1.555200e-01
*     I = -4.839108e-04
*     J = 6.121100e-05
*     CF0 = 2.539936e+03
*     CPCOR = -9.570000e-08
*     CTCOR = 3.250000e-06
*     CSLOPE = 1.000000e+00
* pressure S/N = 2362539, range = 870 psia:  24-aug-06
*     PA0 = 2.171091e-01
*     PA1 = 2.647085e-03
*     PA2 = 1.419397e-11
*     PTCA0 = 5.242437e+05
*     PTCA1 = 7.545345e+00
*     PTCA2 = -1.835354e-01
*     PTCB0 = 2.537125e+01
*     PTCB1 = -1.750000e-03
*     PTCB2 = 0.000000e+00
*     PTEMPA0 = -5.753989e+01
*     PTEMPA1 = 5.235813e+01
*     PTEMPA2 = -4.015521e-02
*     POFFSET = 0.000000e+00
* volt 0: offset = -4.682842e-02, slope = 1.249147e+00
* volt 1: offset = -4.695158e-02, slope = 1.248145e+00
* volt 2: offset = -4.685263e-02, slope = 1.248783e+00
* volt 3: offset = -4.690316e-02, slope = 1.249508e+00
*     EXTFREQSF = 1.000002e+00
* dh
* cast  47 10 Jul 2007 07:30:41 samples 42014 to 42337, avg = 4, stop = mag switch
* S> 
# nquan = 10
# nvalues = 134                         
# units = specified
# name 0 = depSM: Depth [salt water, m]
# name 1 = tv290C: Temperature [ITS-90, deg C]
# name 2 = sal00: Salinity [PSU]
# name 3 = sbeox0Mg/L: Oxygen, SBE 43 [mg/l]
# name 4 = sbeox0PS: Oxygen, SBE 43 [% saturation]
# name 5 = sigma-t00: Density [sigma-t, Kg/m^3 ]
# name 6 = par: PAR/Irradiance, Biospherical/Licor
# name 7 = prdM: Pressure, Strain Gauge [db]
# name 8 = flECO-AFL: Fluorescence, Wetlab ECO-AFL/FL [mg/m^3]
# name 9 = flag: flag
# span 0 =      1.000,     69.000       
# span 1 =     8.1843,     9.6935       
# span 2 =    29.8933,    31.3314       
# span 3 =    8.55951,   11.16454       
# span 4 =   90.65052,  102.00441       
# span 5 =    23.0090,    24.3674       
# span 6 = 1.5480e+00, 8.4846e+01       
# span 7 =      2.073,     67.973       
# span 8 =     0.3528,     6.1238       
# span 9 = 0.0000e+00, 0.0000e+00       
# interval = meters: 1                  
# start_time = Jul 10 2007 07:30:41
# bad_flag = -9.990e-29
# sensor 0 = Frequency 0  temperature, 5061, 05-Oct-06
# sensor 1 = Frequency 1  conductivity, 5061, 05-Oct-06, cpcor = -9.5700e-08
# sensor 2 = Pressure Number
# sensor 3 = Extrnl Volt  0  irradiance (PAR), primary, 4751, 08/10/06
# sensor 4 = Extrnl Volt  1  Oxygen, SBE, primary, 1081, 10/24/06
# sensor 5 = Extrnl Volt  2  WET Labs, ECO_AFL
# sensor 6 = Extrnl Volt  3  userpoly 0, 0627, 10/11/06
# datcnv_date = Oct 15 2007 14:49:45, 5.37e
# datcnv_in = I:\bob d\OTF_GEM\2007\ctd-07047.hex I:\Willette\OTF\CTD\5061.con
# datcnv_skipover = 0
# filter_date = Oct 15 2007 15:02:24, 5.37e
# filter_in = I:\Willette\OTF\CTD\2007\CTD Data\ctd-07047.cnv
# filter_low_pass_tc_A = 1.000
# filter_low_pass_tc_B = 0.150
# filter_low_pass_A_vars = prdM
# filter_low_pass_B_vars =
# loopedit_date = Oct 15 2007 15:06:46, 5.37e
# loopedit_in = I:\Willette\OTF\CTD\2007\CTD Data\ctd-07047.cnv
# loopedit_minVelocity = 0.250                                                                                            
# loopedit_surfaceSoak: minDepth = 5.0, maxDepth = 20, useDeckPress = 1                                                   
# loopedit_excl_bad_scans = yes
# alignctd_date = Oct 15 2007 15:14:15, 5.37e
# alignctd_in = I:\Willette\OTF\CTD\2007\CTD Data\ctd-07047.cnv
# alignctd_adv = tv290C 0.500, sbeox0Mg/L 4.000, sbeox0PS 4.000                                                                                                                                                                      
# binavg_date = Oct 15 2007 15:18:43, 5.37e
# binavg_in = I:\Willette\OTF\CTD\2007\CTD Data\ctd-07047.cnv
# binavg_bintype = meters
# binavg_binsize = 1
# binavg_excl_bad_scans = yes
# binavg_skipover = 0
# binavg_surface_bin = no, min = 0.000, max = 0.000, value = 0.000
# file_type = ascii
*END*
      4.000     9.6935    29.8944    8.63519   91.57148    23.0090 2.6767e+01      4.411     0.4393 0.0000e+00
      5.000     9.6450    29.9512    8.55951   90.65052    23.0642 1.9474e+01      5.364     0.4904 0.0000e+00
      6.000     9.6106    29.9365    8.72949   92.48443    23.0572 1.3653e+01      6.402     0.4636 0.0000e+00
      7.000     9.6021    29.9656    8.71893   92.28778    23.0847 1.0073e+01      7.356     0.4652 0.0000e+00
      8.000     9.5776    29.9966    8.67672   91.80551    23.1107 7.5086e+00      8.364     0.4769 0.0000e+00
      9.000     9.5488    30.0163    8.78486   92.92860    23.1290 5.7491e+00      9.253     0.4808 0.0000e+00
     10.000     9.4886    30.0585    9.05141   95.72646    23.1664 4.4300e+00     10.311     0.4772 0.0000e+00
     11.000     9.4299    30.1465    9.22713   97.51166    23.2431 3.6005e+00     11.353     0.4926 0.0000e+00
     12.000     9.4014    30.2027    9.30049   98.20846    23.2942 3.0742e+00     12.103     0.4901 0.0000e+00
     13.000     9.3732    30.2519    9.36004   98.60005    23.3389 2.6569e+00     13.019     0.4793 0.0000e+00
     14.000     9.3095    30.2860    9.41411   98.88343    23.3707 2.3224e+00     14.329     0.4502 0.0000e+00
     15.000     9.3497    30.3068    9.44511   99.16815    23.3941 2.1552e+00     15.002     0.4510 0.0000e+00
     16.000     9.3150    30.3465    9.48018   99.35778    23.4267 1.9832e+00     15.970     0.4597 0.0000e+00
     17.000     9.2730    30.3379    9.51093   99.59957    23.4217 1.8718e+00     17.256     0.4484 0.0000e+00
     18.000     9.2638    30.3704    9.54230   99.85435    23.4529 1.7909e+00     18.164     0.4603 0.0000e+00
     19.000     9.2591    30.3686    9.55878   99.94779    23.4531 1.7327e+00     19.114     0.4484 0.0000e+00
     20.000     9.2255    30.3691    9.57149   99.91853    23.4547 1.6859e+00     20.226     0.4472 0.0000e+00
     21.000     9.1763    30.3836    9.58216   99.95404    23.4687 1.6506e+00     21.142     0.4424 0.0000e+00
     22.000     9.0242    30.4206    9.61013  100.21283    23.5060 1.6226e+00     22.263     0.4361 0.0000e+00
     23.000     8.8745    30.4951    9.63676  100.44986    23.5819 1.6061e+00     23.400     0.4276 0.0000e+00
     24.000     8.8466    30.6040    9.64174  100.50092    23.6862 1.5932e+00     23.979     0.3827 0.0000e+00
     25.000     8.7071    30.7012    9.65713  100.64565    23.7782 1.5812e+00     25.310     0.3708 0.0000e+00
     26.000     8.6893    30.7851    9.66542  100.64115    23.8564 1.5740e+00     26.147     0.3672 0.0000e+00
     27.000     8.6391    30.8389    9.67809  100.70441    23.9070 1.5684e+00     27.185     0.3739 0.0000e+00
     28.000     8.5971    30.8729    9.69088  100.82348    23.9390 1.5643e+00     28.005     0.3809 0.0000e+00
     29.000     8.5039    30.9252    9.70572  100.97086    23.9883 1.5586e+00     29.091     0.3615 0.0000e+00
     30.000     8.4493    30.9949    9.71648  101.06368    24.0547 1.5489e+00     30.016     0.3580 0.0000e+00
     31.000     8.4274    31.0692    9.71664  101.04513    24.1252 1.5569e+00     31.178     0.3694 0.0000e+00
     32.000     8.4050    31.0783    9.72712  101.15077    24.1341 1.5544e+00     32.204     0.3569 0.0000e+00
     33.000     8.3978    31.0984    9.73803  101.28171    24.1529 1.5536e+00     33.170     0.3577 0.0000e+00
     34.000     8.3185    31.1107    9.73750  101.25847    24.1642 1.5530e+00     34.465     0.3558 0.0000e+00
     35.000     8.2881    31.1795    9.74734  101.34462    24.2282 1.5521e+00     35.388     0.3528 0.0000e+00
     36.000     8.2904    31.2143    9.74641  101.32765    24.2608 1.5519e+00     36.421     0.3580 0.0000e+00
     37.000     8.2776    31.2125    9.74344  101.29977    24.2592 1.5514e+00     37.297     0.6987 0.0000e+00
     38.000     8.2577    31.2266    9.75008  101.36198    24.2721 1.5510e+00     38.561     2.2496 0.0000e+00
     39.000     8.2617    31.2386    9.74390  101.28695    24.2832 1.5512e+00     39.265     2.5257 0.0000e+00
     40.000     8.2664    31.2415    9.75300  101.37280    24.2860 1.5508e+00     40.013     3.1853 0.0000e+00
     41.000     8.2676    31.2326    9.76513  101.49792    24.2778 1.5504e+00     41.478     3.9734 0.0000e+00
     42.000     8.2535    31.2409    9.76269  101.46116    24.2854 1.5499e+00     42.359     3.9013 0.0000e+00
     43.000     8.2475    31.2509    9.76591  101.46962    24.2948 1.5501e+00     43.381     3.6032 0.0000e+00
     44.000     8.2489    31.2560    9.77405  101.55601    24.2995 1.5501e+00     44.330     3.1078 0.0000e+00
     45.000     8.2442    31.2541    9.78809  101.70004    24.2978 1.5499e+00     45.351     2.9401 0.0000e+00
     46.000     8.2338    31.2623    9.78701  101.68479    24.3052 1.5498e+00     46.330     2.7632 0.0000e+00
     47.000     8.2311    31.2740    9.79309  101.74631    24.3159 1.5499e+00     47.414     2.7066 0.0000e+00
     48.000     8.2258    31.2736    9.79748  101.79601    24.3156 1.5496e+00     48.580     2.8042 0.0000e+00
     49.000     8.2053    31.2885    9.80753  101.89785    24.3287 1.5499e+00     49.837     2.7772 0.0000e+00
     50.000     8.2093    31.3040    9.80497  101.87366    24.3430 1.5494e+00     50.738     2.8977 0.0000e+00
     51.000     8.2082    31.3008    9.79653  101.78284    24.3401 1.5497e+00     51.674     2.9697 0.0000e+00
     52.000     8.2083    31.3016    9.79504  101.75046    24.3409 1.5498e+00     52.640     2.9867 0.0000e+00
     53.000     8.2026    31.3017    9.80293  101.83754    24.3410 1.5495e+00     53.499     3.2079 0.0000e+00
     54.000     8.2043    31.3077    9.81108  101.92980    24.3463 1.5493e+00     54.418     3.3049 0.0000e+00
     55.000     8.2068    31.3063    9.80962  101.91212    24.3451 1.5496e+00     55.438     3.2606 0.0000e+00
     56.000     8.2059    31.3037    9.81152  101.92689    24.3428 1.5496e+00     56.476     3.2571 0.0000e+00
     57.000     8.2060    31.3057    9.81377  101.93817    24.3444 1.5494e+00     57.640     3.2842 0.0000e+00
     58.000     8.2061    31.3043    9.81474  101.95167    24.3434 1.5496e+00     58.484     3.2191 0.0000e+00
     59.000     8.2000    31.3048    9.81613  101.95963    24.3438 1.5496e+00     59.587     3.3958 0.0000e+00
     60.000     8.1947    31.3110    9.81281  101.91910    24.3490 1.5492e+00     60.685     3.3991 0.0000e+00
     61.000     8.2000    31.3169    9.81419  101.93978    24.3546 1.5494e+00     61.481     3.5102 0.0000e+00
     62.000     8.1997    31.3056    9.81986  102.00441    24.3446 1.5494e+00     63.089     3.6758 0.0000e+00
     63.000     8.1985    31.3111    9.81685  101.97201    24.3493 1.5493e+00     63.584     3.6013 0.0000e+00
     64.000     8.1913    31.3145    9.81704  101.97456    24.3524 1.5493e+00     64.537     3.7885 0.0000e+00
     65.000     8.1917    31.3230    9.81494  101.95646    24.3599 1.5493e+00     65.415     3.9293 0.0000e+00
     66.000     8.1890    31.3243    9.81208  101.92947    24.3612 1.5489e+00     66.148     3.9772 0.0000e+00
     67.000     8.1848    31.3258    9.80938  101.91007    24.3624 1.5490e+00     67.038     3.8418 0.0000e+00
     68.000     8.1843    31.3314    9.81046  101.92623    24.3674 1.5489e+00     67.566     3.6253 0.0000e+00
     69.000     8.1889    31.3305    9.79325  101.75132    24.3666 1.5489e+00     67.973     3.3943 0.0000e+00
     68.000     8.1898    31.3273    9.77406  101.54891    24.3637 1.5486e+00     67.094     3.3810 0.0000e+00
     67.000     8.1919    31.3289    9.78857  101.70015    24.3649 1.5483e+00     66.677     3.9345 0.0000e+00
     66.000     8.1939    31.3260    9.79181  101.73590    24.3626 1.5493e+00     65.932     4.6823 0.0000e+00
     65.000     8.1969    31.3233    9.79076  101.72994    24.3601 1.5495e+00     65.199     5.1265 0.0000e+00
     64.000     8.2007    31.3209    9.79503  101.77760    24.3580 1.5492e+00     64.390     5.3726 0.0000e+00
     63.000     8.2044    31.3136    9.80084  101.84628    24.3516 1.5491e+00     63.392     5.6320 0.0000e+00
     62.000     8.2054    31.3096    9.79377  101.78279    24.3480 1.5489e+00     62.551     5.6925 0.0000e+00
     61.000     8.2065    31.3068    9.78618  101.71738    24.3454 1.5488e+00     61.557     6.1238 0.0000e+00
     60.000     8.2057    31.3050    9.78980  101.75728    24.3438 1.5483e+00     60.806     5.8927 0.0000e+00
     59.000     8.2067    31.3048    9.79143  101.77297    24.3437 1.5488e+00     59.554     5.8306 0.0000e+00
     58.000     8.2052    31.3043    9.77974  101.65246    24.3432 1.5487e+00     58.643     4.9846 0.0000e+00
     57.000     8.2047    31.3055    9.77009  101.55423    24.3443 1.5486e+00     57.634     4.1402 0.0000e+00
     56.000     8.2049    31.3066    9.76510  101.50792    24.3453 1.5482e+00     56.840     3.3426 0.0000e+00
     55.000     8.2094    31.3061    9.76969  101.56716    24.3449 1.5489e+00     55.661     2.6034 0.0000e+00
     54.000     8.2120    31.3015    9.76996  101.57446    24.3409 1.5481e+00     54.794     2.2851 0.0000e+00
     53.000     8.2197    31.2969    9.76749  101.55316    24.3367 1.5480e+00     53.692     1.9113 0.0000e+00
     52.000     8.2290    31.2887    9.76838  101.56917    24.3293 1.5485e+00     52.790     1.6098 0.0000e+00
     51.000     8.2330    31.2765    9.76614  101.54652    24.3184 1.5488e+00     51.792     1.4810 0.0000e+00
     50.000     8.2333    31.2710    9.75996  101.48817    24.3133 1.5488e+00     50.605     1.3560 0.0000e+00
     49.000     8.2348    31.2709    9.75289  101.42270    24.3132 1.5489e+00     49.565     1.2957 0.0000e+00
     48.000     8.2425    31.2694    9.73558  101.25109    24.3118 1.5486e+00     48.559     1.2384 0.0000e+00
     47.000     8.2481    31.2585    9.74103  101.32225    24.3021 1.5496e+00     47.528     1.3335 0.0000e+00
     46.000     8.2524    31.2533    9.74384  101.35006    24.2973 1.5492e+00     46.558     1.1340 0.0000e+00
     45.000     8.2576    31.2485    9.74164  101.32912    24.2929 1.5499e+00     45.515     0.7032 0.0000e+00
     44.000     8.2572    31.2433    9.74343  101.35477    24.2883 1.5494e+00     44.609     0.3532 0.0000e+00
     43.000     8.2636    31.2417    9.74131  101.34519    24.2867 1.5482e+00     43.571     0.3967 0.0000e+00
     42.000     8.2716    31.2335    9.74420  101.39354    24.2792 1.5492e+00     42.528     0.4106 0.0000e+00
     41.000     8.2784    31.2225    9.74123  101.38060    24.2692 1.5487e+00     41.408     0.3915 0.0000e+00
     40.000     8.2794    31.2205    9.73189  101.29800    24.2672 1.5490e+00     40.415     0.3959 0.0000e+00
     39.000     8.2857    31.2172    9.72809  101.28036    24.2642 1.5489e+00     39.341     0.3780 0.0000e+00
     38.000     8.2955    31.2097    9.72808  101.29633    24.2574 1.5483e+00     38.422     0.3776 0.0000e+00
     37.000     8.3068    31.1976    9.72720  101.31141    24.2461 1.5518e+00     37.333     0.3626 0.0000e+00
     36.000     8.3154    31.1868    9.72490  101.32820    24.2362 1.5510e+00     36.424     0.3710 0.0000e+00
     35.000     8.3251    31.1766    9.72343  101.34591    24.2268 1.5507e+00     35.430     0.3608 0.0000e+00
     34.000     8.3394    31.1674    9.71745  101.31779    24.2183 1.5508e+00     34.491     0.3744 0.0000e+00
     33.000     8.3553    31.1483    9.71123  101.30707    24.2006 1.5514e+00     33.363     0.3719 0.0000e+00
     32.000     8.3839    31.1279    9.70660  101.38130    24.1817 1.5525e+00     32.363     0.3760 0.0000e+00
     31.000     8.4153    31.0953    9.69811  101.46235    24.1513 1.5495e+00     31.297     0.3642 0.0000e+00
     30.000     8.4441    31.0683    9.68909  101.44737    24.1259 1.5563e+00     30.273     0.3632 0.0000e+00
     29.000     8.5029    31.0344    9.67211  101.38675    24.0940 1.5601e+00     29.225     0.3714 0.0000e+00
     28.000     8.5948    30.9616    9.66902  101.58915    24.0247 1.5599e+00     28.183     0.3953 0.0000e+00
     27.000     8.6535    30.8904    9.65429  101.83939    23.9572 1.5661e+00     27.189     0.4187 0.0000e+00
     26.000     8.6853    30.8546    9.63051  101.96973    23.9235 1.5715e+00     26.154     0.4185 0.0000e+00
     25.000     8.7588    30.8236    9.59531  101.66243    23.8949 1.5786e+00     25.138     0.3921 0.0000e+00
     24.000     8.8722    30.7152    9.57388  101.44830    23.7943 1.5870e+00     24.166     0.3991 0.0000e+00
     23.000     8.9905    30.6282    9.56950  101.40148    23.7123 1.6013e+00     23.062     0.4083 0.0000e+00
     22.000     9.2134    30.5076    9.56662  101.37353    23.5945 1.6181e+00     22.119     0.4399 0.0000e+00
     21.000     9.3247    30.3653    9.55925  101.31975    23.4545 1.6411e+00     21.146     0.4772 0.0000e+00
     20.000     9.3562    30.2908    9.55639  101.34588    23.3816 1.6740e+00     20.179     0.4854 0.0000e+00
     19.000     9.3676    30.2768    9.54774  101.31319    23.3676 1.7151e+00     18.954     0.4760 0.0000e+00
     18.000     9.3670    30.2695    9.53680  101.23786    23.3604 1.7707e+00     18.069     0.4893 0.0000e+00
     17.000     9.3658    30.2694    9.54632  101.41013    23.3605 1.8504e+00     17.079     0.4815 0.0000e+00
     16.000     9.3687    30.2709    9.53152  101.29089    23.3619 1.9517e+00     16.220     0.4837 0.0000e+00
     15.000     9.3846    30.2658    9.52394  101.22211    23.3572 2.1055e+00     15.154     0.4847 0.0000e+00
     14.000     9.4164    30.2493    9.51803  101.16615    23.3418 2.2983e+00     14.218     0.4807 0.0000e+00
     13.000     9.4506    30.2106    9.50929  101.08956    23.3053 2.5484e+00     13.076     0.5134 0.0000e+00
     12.000     9.4973    30.1670    9.52566  101.29073    23.2658 2.9240e+00     11.771     0.5237 0.0000e+00
     11.000     9.5445    30.1047    9.51861  101.25561    23.2116 3.4678e+00     10.942     0.5054 0.0000e+00
     10.000     9.5735    30.0339   10.40699  101.01837    23.1494 4.3291e+00      9.970     0.4869 0.0000e+00
      9.000     9.5825    29.9887   10.61857  100.61481    23.1088 5.5153e+00      8.838     0.4652 0.0000e+00
      8.000     9.5844    29.9823   11.16454  100.62004    23.1030 7.1985e+00      7.835     0.4748 0.0000e+00
      7.000     9.5932    29.9811 -9.990e-29 -9.990e-29    23.1019 9.6134e+00      6.923     0.4865 0.0000e+00
      6.000     9.6002    29.9689 -9.990e-29 -9.990e-29    23.0913 1.3124e+01      6.034     0.4791 0.0000e+00
      5.000     9.6093    29.9558 -9.990e-29 -9.990e-29    23.0796 1.8740e+01      5.145     0.4591 0.0000e+00
      4.000     9.6284    29.9447 -9.990e-29 -9.990e-29    23.0700 2.7063e+01      4.190     0.4711 0.0000e+00
      3.000     9.6427    29.9246 -9.990e-29 -9.990e-29    23.0519 3.7639e+01      3.471     0.4613 0.0000e+00
      2.000     9.6600    29.9047 -9.990e-29 -9.990e-29    23.0337 5.1086e+01      2.640     0.4607 0.0000e+00
      1.000     9.6650    29.8933 -9.990e-29 -9.990e-29    23.0226 8.4846e+01      2.073     0.4840 0.0000e+00
