* Sea-Bird SBE19plus Data File:
* FileName = C:\data\otf\2007\ctd-07072.hex
* Software Version 1.55
* Temperature SN =  5061
* Conductivity SN =  5061
* System UpLoad Time = Aug 15 2007 16:17:23
* ds
* SeacatPlus V 1.6a  SERIAL NO. 5061    15 Aug 2007  15:31:53
* vbatt = 10.9, vlith =  8.7, ioper =  61.6 ma, ipump =  57.5 ma, 
* iext01 =  95.2 ma
* iext23 =  58.1 ma
* 
* status = not logging
* number of scans to average = 1
* samples = 153039, free = 288466, casts = 154
* mode = profile, minimum cond freq = 3000, pump delay = 60 sec
* autorun = no, ignore magnetic switch = no
* battery type = alkaline, battery cutoff =  7.3 volts
* pressure sensor = strain gauge, range = 870.0
* SBE 38 = no, Gas Tension Device = no
* Ext Volt 0 = yes, Ext Volt 1 = yes, Ext Volt 2 = yes, Ext Volt 3 = yes
* echo commands = yes
* output format = raw HEX
* S>
* 
* SeacatPlus V 1.6a  SERIAL NO. 5061    15 Aug 2007  15:32:18
* temperature:  05-oct-06
*     TA0 = 1.254184e-03
*     TA1 = 2.596730e-04
*     TA2 = 5.165612e-07
*     TA3 = 1.318931e-07
*     TOFFSET = 0.000000e+00
* conductivity:  05-oct-06
*     G = -9.978144e-01
*     H = 1.555200e-01
*     I = -4.839108e-04
*     J = 6.121100e-05
*     CF0 = 2.539936e+03
*     CPCOR = -9.570000e-08
*     CTCOR = 3.250000e-06
*     CSLOPE = 1.000000e+00
* pressure S/N = 2362539, range = 870 psia:  24-aug-06
*     PA0 = 2.171091e-01
*     PA1 = 2.647085e-03
*     PA2 = 1.419397e-11
*     PTCA0 = 5.242437e+05
*     PTCA1 = 7.545345e+00
*     PTCA2 = -1.835354e-01
*     PTCB0 = 2.537125e+01
*     PTCB1 = -1.750000e-03
*     PTCB2 = 0.000000e+00
*     PTEMPA0 = -5.753989e+01
*     PTEMPA1 = 5.235813e+01
*     PTEMPA2 = -4.015521e-02
*     POFFSET = 0.000000e+00
* volt 0: offset = -4.682842e-02, slope = 1.249147e+00
* volt 1: offset = -4.695158e-02, slope = 1.248145e+00
* volt 2: offset = -4.685263e-02, slope = 1.248783e+00
* volt 3: offset = -4.690316e-02, slope = 1.249508e+00
*     EXTFREQSF = 1.000002e+00
* dh
* cast  72 14 Jul 2007 08:02:29 samples 48962 to 49285, avg = 4, stop = mag switch
* S> 
# nquan = 10
# nvalues = 150                         
# units = specified
# name 0 = depSM: Depth [salt water, m]
# name 1 = tv290C: Temperature [ITS-90, deg C]
# name 2 = sal00: Salinity [PSU]
# name 3 = sbeox0Mg/L: Oxygen, SBE 43 [mg/l]
# name 4 = sbeox0PS: Oxygen, SBE 43 [% saturation]
# name 5 = sigma-t00: Density [sigma-t, Kg/m^3 ]
# name 6 = par: PAR/Irradiance, Biospherical/Licor
# name 7 = prdM: Pressure, Strain Gauge [db]
# name 8 = flECO-AFL: Fluorescence, Wetlab ECO-AFL/FL [mg/m^3]
# name 9 = flag: flag
# span 0 =      1.000,     77.000       
# span 1 =     8.0963,     9.6369       
# span 2 =    30.2216,    31.6986       
# span 3 =    8.90988,   10.00937       
# span 4 =   93.35022,  103.99914       
# span 5 =    23.2954,    24.6684       
# span 6 = 1.5459e+00, 1.4317e+02       
# span 7 =      1.997,     76.157       
# span 8 =     0.3870,     1.0286       
# span 9 = 0.0000e+00, 0.0000e+00       
# interval = meters: 1                  
# start_time = Jul 14 2007 08:02:29
# bad_flag = -9.990e-29
# sensor 0 = Frequency 0  temperature, 5061, 05-Oct-06
# sensor 1 = Frequency 1  conductivity, 5061, 05-Oct-06, cpcor = -9.5700e-08
# sensor 2 = Pressure Number
# sensor 3 = Extrnl Volt  0  irradiance (PAR), primary, 4751, 08/10/06
# sensor 4 = Extrnl Volt  1  Oxygen, SBE, primary, 1081, 10/24/06
# sensor 5 = Extrnl Volt  2  WET Labs, ECO_AFL
# sensor 6 = Extrnl Volt  3  userpoly 0, 0627, 10/11/06
# datcnv_date = Oct 15 2007 14:49:45, 5.37e
# datcnv_in = I:\bob d\OTF_GEM\2007\ctd-07072.hex I:\Willette\OTF\CTD\5061.con
# datcnv_skipover = 0
# filter_date = Oct 15 2007 15:02:25, 5.37e
# filter_in = I:\Willette\OTF\CTD\2007\CTD Data\ctd-07072.cnv
# filter_low_pass_tc_A = 1.000
# filter_low_pass_tc_B = 0.150
# filter_low_pass_A_vars = prdM
# filter_low_pass_B_vars =
# loopedit_date = Oct 15 2007 15:06:47, 5.37e
# loopedit_in = I:\Willette\OTF\CTD\2007\CTD Data\ctd-07072.cnv
# loopedit_minVelocity = 0.250                                                                                            
# loopedit_surfaceSoak: minDepth = 5.0, maxDepth = 20, useDeckPress = 1                                                   
# loopedit_excl_bad_scans = yes
# alignctd_date = Oct 15 2007 15:14:16, 5.37e
# alignctd_in = I:\Willette\OTF\CTD\2007\CTD Data\ctd-07072.cnv
# alignctd_adv = tv290C 0.500, sbeox0Mg/L 4.000, sbeox0PS 4.000                                                                                                                                                                      
# binavg_date = Oct 15 2007 15:18:44, 5.37e
# binavg_in = I:\Willette\OTF\CTD\2007\CTD Data\ctd-07072.cnv
# binavg_bintype = meters
# binavg_binsize = 1
# binavg_excl_bad_scans = yes
# binavg_skipover = 0
# binavg_surface_bin = no, min = 0.000, max = 0.000, value = 0.000
# file_type = ascii
*END*
      4.000     9.3072    30.2782    8.90988   93.35022    23.3522 3.2144e+01      4.559     0.6495 0.0000e+00
      5.000     9.2474    30.4460    8.93238   93.53993    23.5007 2.6182e+01      5.459     0.5298 0.0000e+00
      6.000     9.1975    30.5434    9.00985   94.33645    23.5909 2.1101e+01      6.374     0.4456 0.0000e+00
      7.000     9.1470    30.6046    9.06310   94.87955    23.6455 1.6447e+01      7.327     0.4290 0.0000e+00
      8.000     9.1039    30.6718    9.11099   95.35729    23.7064 1.3013e+01      8.278     0.4283 0.0000e+00
      9.000     9.0461    30.7306    9.13041   95.52382    23.7594 1.0404e+01      9.358     0.4249 0.0000e+00
     10.000     8.9757    30.7995    9.22257   96.43041    23.8221 8.3058e+00     10.465     0.4048 0.0000e+00
     11.000     8.7912    30.8146    9.38222   98.06869    23.8422 6.8243e+00     11.522     0.3870 0.0000e+00
     12.000     8.6722    30.9248    9.48378   99.09804    23.9467 5.6511e+00     12.504     0.4061 0.0000e+00
     13.000     8.6126    31.0879    9.54968   99.74940    24.0988 4.7384e+00     13.465     0.4337 0.0000e+00
     14.000     8.5866    31.1623    9.58980  100.14496    24.1684 4.0930e+00     14.379     0.4287 0.0000e+00
     15.000     8.5647    31.2084    9.61348  100.37355    24.2099 3.5762e+00     15.299     0.4245 0.0000e+00
     16.000     8.5553    31.2376    9.64452  100.67131    24.2364 3.1652e+00     16.298     0.4491 0.0000e+00
     17.000     8.5481    31.2606    9.67556  100.99240    24.2575 2.8650e+00     17.182     0.4759 0.0000e+00
     18.000     8.5394    31.2718    9.69096  101.12893    24.2671 2.6337e+00     18.185     0.4698 0.0000e+00
     19.000     8.5246    31.2817    9.70921  101.29674    24.2759 2.4391e+00     19.158     0.4704 0.0000e+00
     20.000     8.5115    31.2940    9.72649  101.44877    24.2870 2.2740e+00     20.123     0.4853 0.0000e+00
     21.000     8.4935    31.3150    9.74071  101.56955    24.3057 2.1414e+00     21.090     0.4951 0.0000e+00
     22.000     8.4630    31.3312    9.75007  101.60742    24.3205 2.0336e+00     22.175     0.4851 0.0000e+00
     23.000     8.4510    31.3356    9.76985  101.80092    24.3272 1.9505e+00     23.167     0.5183 0.0000e+00
     24.000     8.4365    31.3618    9.78685  101.94651    24.3514 1.8857e+00     24.149     0.5165 0.0000e+00
     25.000     8.4113    31.3722    9.79834  101.95141    24.3617 1.8310e+00     25.300     0.4900 0.0000e+00
     26.000     8.3968    31.3891    9.82007  102.17331    24.3778 1.7846e+00     26.334     0.5125 0.0000e+00
     27.000     8.3841    31.4056    9.84120  102.37265    24.3937 1.7467e+00     27.392     0.4988 0.0000e+00
     28.000     8.3757    31.4149    9.85019  102.43821    24.4029 1.7163e+00     28.425     0.5162 0.0000e+00
     29.000     8.3679    31.4252    9.86417  102.56938    24.4128 1.6908e+00     29.378     0.5142 0.0000e+00
     30.000     8.3535    31.4303    9.87724  102.71758    24.4178 1.6693e+00     30.358     0.5013 0.0000e+00
     31.000     8.3412    31.4359    9.89104  102.86206    24.4233 1.6512e+00     31.425     0.4891 0.0000e+00
     32.000     8.3248    31.4479    9.89712  102.89437    24.4351 1.6362e+00     32.326     0.4963 0.0000e+00
     33.000     8.3115    31.4558    9.90353  102.97244    24.4425 1.6231e+00     33.244     0.4897 0.0000e+00
     34.000     8.2752    31.4727    9.91086  103.07285    24.4586 1.6113e+00     34.336     0.4717 0.0000e+00
     35.000     8.2742    31.4827    9.91226  103.06453    24.4684 1.6032e+00     35.209     0.4850 0.0000e+00
     36.000     8.2557    31.5052    9.91791  103.08321    24.4899 1.5957e+00     36.199     0.4927 0.0000e+00
     37.000     8.2008    31.5088    9.92721  103.16771    24.4934 1.5895e+00     37.205     0.4862 0.0000e+00
     38.000     8.1870    31.5434    9.93423  103.23517    24.5256 1.5837e+00     38.220     0.4902 0.0000e+00
     39.000     8.1782    31.5967    9.94388  103.33471    24.5765 1.5791e+00     39.274     0.5116 0.0000e+00
     40.000     8.1647    31.5888    9.95167  103.41882    24.5689 1.5746e+00     40.277     0.5156 0.0000e+00
     41.000     8.1485    31.6062    9.95907  103.49023    24.5848 1.5714e+00     41.322     0.5189 0.0000e+00
     42.000     8.1581    31.6276    9.96313  103.53262    24.6044 1.5685e+00     42.342     0.5621 0.0000e+00
     43.000     8.1548    31.6336    9.96565  103.55735    24.6100 1.5657e+00     43.454     0.6670 0.0000e+00
     44.000     8.1324    31.6110    9.97270  103.63607    24.5897 1.5627e+00     44.435     0.6208 0.0000e+00
     45.000     8.1511    31.6372    9.97214  103.62748    24.6130 1.5612e+00     45.401     0.5877 0.0000e+00
     46.000     8.1474    31.6340    9.97350  103.64266    24.6105 1.5601e+00     46.459     0.6221 0.0000e+00
     47.000     8.1212    31.6242    9.97395  103.64639    24.6013 1.5584e+00     47.410     0.5684 0.0000e+00
     48.000     8.1152    31.6384    9.97635  103.67189    24.6140 1.5571e+00     48.262     0.5755 0.0000e+00
     49.000     8.1098    31.6669    9.97792  103.68912    24.6398 1.5555e+00     49.279     0.6469 0.0000e+00
     50.000     8.1088    31.6768    9.98245  103.73603    24.6489 1.5545e+00     50.263     0.6999 0.0000e+00
     51.000     8.1099    31.6803    9.98596  103.77238    24.6521 1.5536e+00     51.240     0.7029 0.0000e+00
     52.000     8.1072    31.6791    9.98546  103.76787    24.6512 1.5527e+00     52.296     0.7400 0.0000e+00
     53.000     8.1067    31.6816    9.98470  103.75622    24.6533 1.5521e+00     53.281     0.7313 0.0000e+00
     54.000     8.1066    31.6832    9.98864  103.79591    24.6548 1.5521e+00     54.240     0.7864 0.0000e+00
     55.000     8.1084    31.6826    9.99226  103.83925    24.6542 1.5516e+00     55.325     0.7605 0.0000e+00
     56.000     8.1079    31.6801    9.99421  103.85590    24.6520 1.5513e+00     56.316     0.7346 0.0000e+00
     57.000     8.1083    31.6809    9.98476  103.75413    24.6527 1.5485e+00     57.417     0.7293 0.0000e+00
     58.000     8.1086    31.6805    9.99314  103.84366    24.6524 1.5459e+00     58.474     0.7591 0.0000e+00
     59.000     8.1087    31.6801    9.99484  103.86025    24.6520 1.5494e+00     59.574     0.7258 0.0000e+00
     60.000     8.1084    31.6798    9.98937  103.80024    24.6517 1.5503e+00     60.651     0.7091 0.0000e+00
     61.000     8.1088    31.6802    9.99222  103.83035    24.6521 1.5504e+00     61.611     0.7020 0.0000e+00
     62.000     8.1052    31.6806    9.99749  103.88644    24.6525 1.5502e+00     62.629     0.7025 0.0000e+00
     63.000     8.1069    31.6832   10.00510  103.96202    24.6546 1.5503e+00     63.533     0.7876 0.0000e+00
     64.000     8.1105    31.6839   10.00556  103.95889    24.6554 1.5505e+00     64.613     0.7655 0.0000e+00
     65.000     8.1050    31.6793   10.00680  103.97210    24.6513 1.5499e+00     65.566     0.7821 0.0000e+00
     66.000     8.1057    31.6847   10.00614  103.96509    24.6560 1.5499e+00     66.604     0.7699 0.0000e+00
     67.000     8.1060    31.6845   10.00724  103.97665    24.6559 1.5496e+00     67.620     0.8156 0.0000e+00
     68.000     8.1047    31.6844   10.00937  103.99914    24.6557 1.5499e+00     68.633     0.7443 0.0000e+00
     69.000     8.1026    31.6857   10.00466  103.94974    24.6568 1.5496e+00     69.541     0.7791 0.0000e+00
     70.000     8.1034    31.6889   10.00387  103.94407    24.6597 1.5497e+00     70.489     0.7752 0.0000e+00
     71.000     8.1034    31.6883   10.00234  103.92864    24.6592 1.5496e+00     71.483     0.8032 0.0000e+00
     72.000     8.0990    31.6889    9.99524  103.85392    24.6596 1.5496e+00     72.422     0.7910 0.0000e+00
     73.000     8.0966    31.6946    9.99663  103.86805    24.6646 1.5496e+00     73.331     0.9101 0.0000e+00
     74.000     8.0965    31.6986   10.00633  103.96976    24.6684 1.5494e+00     74.261     0.8045 0.0000e+00
     75.000     8.0963    31.6984   10.00234  103.93271    24.6681 1.5496e+00     75.054     0.8571 0.0000e+00
     76.000     8.0965    31.6983    9.99555  103.86505    24.6681 1.5495e+00     75.700     0.8200 0.0000e+00
     77.000     8.0973    31.6985    9.99937  103.89859    24.6681 1.5495e+00     76.157     0.8593 0.0000e+00
     76.000     8.0972    31.6982   10.00247  103.93133    24.6678 1.5491e+00     75.638     0.8948 0.0000e+00
     75.000     8.0974    31.6982    9.99136  103.81483    24.6679 1.5490e+00     74.684     0.8527 0.0000e+00
     74.000     8.0984    31.6979    9.99415  103.84595    24.6676 1.5492e+00     74.042     0.8226 0.0000e+00
     73.000     8.1009    31.6965    9.99821  103.88881    24.6664 1.5493e+00     73.206     0.8209 0.0000e+00
     72.000     8.1024    31.6936    9.99870  103.89852    24.6638 1.5489e+00     72.345     0.9342 0.0000e+00
     71.000     8.1035    31.6906    9.99700  103.87447    24.6611 1.5498e+00     71.494     0.8156 0.0000e+00
     70.000     8.0993    31.6897    9.99526  103.85597    24.6603 1.5492e+00     70.522     0.8035 0.0000e+00
     69.000     8.0981    31.6940    9.99465  103.85824    24.6640 1.5492e+00     69.626     0.8382 0.0000e+00
     68.000     8.0984    31.6965    9.99616  103.87712    24.6664 1.5491e+00     68.688     1.0286 0.0000e+00
     67.000     8.0987    31.6962    9.99036  103.81758    24.6661 1.5493e+00     67.658     0.8820 0.0000e+00
     66.000     8.0998    31.6959    9.99459  103.86496    24.6659 1.5489e+00     66.745     0.9816 0.0000e+00
     65.000     8.0992    31.6937    9.99683  103.89149    24.6640 1.5492e+00     65.729     0.7936 0.0000e+00
     64.000     8.1006    31.6939    9.99594  103.88261    24.6642 1.5491e+00     64.796     0.7827 0.0000e+00
     63.000     8.1013    31.6920    9.99604  103.88044    24.6627 1.5490e+00     63.779     0.7937 0.0000e+00
     62.000     8.1043    31.6918    9.99509  103.87448    24.6623 1.5491e+00     62.720     0.8033 0.0000e+00
     61.000     8.0986    31.6875    9.99626  103.88708    24.6585 1.5492e+00     61.734     0.8040 0.0000e+00
     60.000     8.1028    31.6948    9.98731  103.78976    24.6649 1.5492e+00     60.702     0.8598 0.0000e+00
     59.000     8.1086    31.6897    9.98595  103.78658    24.6607 1.5488e+00     59.805     0.8224 0.0000e+00
     58.000     8.1086    31.6806    9.98605  103.79037    24.6526 1.5494e+00     58.846     0.7506 0.0000e+00
     57.000     8.1122    31.6793    9.98756  103.81025    24.6515 1.5498e+00     57.819     0.7302 0.0000e+00
     56.000     8.1135    31.6733    9.98430  103.76837    24.6461 1.5495e+00     56.730     0.7660 0.0000e+00
     55.000     8.1110    31.6724    9.98301  103.75061    24.6453 1.5499e+00     55.677     0.8230 0.0000e+00
     54.000     8.1141    31.6735    9.98631  103.79541    24.6463 1.5502e+00     54.683     0.7590 0.0000e+00
     53.000     8.1145    31.6721    9.98017  103.74392    24.6450 1.5515e+00     53.699     0.7451 0.0000e+00
     52.000     8.1206    31.6696    9.97387  103.67746    24.6429 1.5522e+00     52.705     0.7906 0.0000e+00
     51.000     8.1231    31.6610    9.98537  103.79764    24.6351 1.5509e+00     51.657     0.7762 0.0000e+00
     50.000     8.1168    31.6624    9.98035  103.75115    24.6364 1.5536e+00     50.624     0.7827 0.0000e+00
     49.000     8.1232    31.6694    9.97909  103.73990    24.6426 1.5544e+00     49.567     0.7581 0.0000e+00
     48.000     8.1310    31.6486    9.97287  103.69196    24.6242 1.5551e+00     48.454     0.7014 0.0000e+00
     47.000     8.1305    31.6512    9.96674  103.62792    24.6263 1.5560e+00     47.427     0.6773 0.0000e+00
     46.000     8.1341    31.6454    9.96651  103.63414    24.6213 1.5570e+00     46.396     0.6825 0.0000e+00
     45.000     8.1359    31.6476    9.96529  103.62896    24.6231 1.5582e+00     45.436     0.6854 0.0000e+00
     44.000     8.1454    31.6360    9.96504  103.63466    24.6129 1.5601e+00     44.467     0.6468 0.0000e+00
     43.000     8.1458    31.6300    9.96397  103.63783    24.6073 1.5622e+00     43.546     0.5936 0.0000e+00
     42.000     8.1491    31.6317    9.95460  103.53994    24.6086 1.5642e+00     42.508     0.6525 0.0000e+00
     41.000     8.1561    31.6233    9.94826  103.58721    24.6010 1.5671e+00     41.438     0.6785 0.0000e+00
     40.000     8.1656    31.6163    9.91638  103.35559    24.5945 1.5704e+00     40.345     0.6660 0.0000e+00
     39.000     8.1679    31.6049    9.90578  103.24170    24.5839 1.5740e+00     39.371     0.6115 0.0000e+00
     38.000     8.2256    31.5883    9.89194  103.12150    24.5688 1.5775e+00     38.306     0.5856 0.0000e+00
     37.000     8.2805    31.5059    9.87858  102.99006    24.4916 1.5827e+00     37.212     0.5218 0.0000e+00
     36.000     8.2973    31.4921    9.86652  102.92332    24.4782 1.5891e+00     36.222     0.5182 0.0000e+00
     35.000     8.2875    31.4919    9.85927  102.88641    24.4781 1.5960e+00     35.218     0.5270 0.0000e+00
     34.000     8.3035    31.4927    9.85935  102.90074    24.4789 1.6046e+00     34.277     0.5429 0.0000e+00
     33.000     8.3065    31.4782    9.86022  102.91458    24.4648 1.6152e+00     33.333     0.5231 0.0000e+00
     32.000     8.3175    31.4800    9.85971  102.93343    24.4666 1.6273e+00     32.327     0.5377 0.0000e+00
     31.000     8.3475    31.4615    9.85538  102.95299    24.4486 1.6421e+00     31.213     0.5287 0.0000e+00
     30.000     8.3634    31.4410    9.84321  102.93673    24.4288 1.6599e+00     30.135     0.5503 0.0000e+00
     29.000     8.3683    31.4346    9.81628  102.70526    24.4224 1.6806e+00     29.159     0.5574 0.0000e+00
     28.000     8.3711    31.4300    9.80156  102.56469    24.4180 1.7056e+00     28.130     0.5490 0.0000e+00
     27.000     8.3836    31.4262    9.80006  102.56089    24.4145 1.7358e+00     27.150     0.5549 0.0000e+00
     26.000     8.3938    31.4196    9.79318  102.50327    24.4081 1.7724e+00     26.231     0.6170 0.0000e+00
     25.000     8.4494    31.4091    9.78332  102.41953    24.3980 1.8165e+00     25.217     0.5423 0.0000e+00
     24.000     8.4893    31.3574    9.77020  102.29378    24.3486 1.8715e+00     24.177     0.5389 0.0000e+00
     23.000     8.5148    31.3205    9.77401  102.36591    24.3139 1.9384e+00     23.111     0.5254 0.0000e+00
     22.000     8.5224    31.2952    9.76703  102.35510    24.2907 2.0191e+00     22.040     0.5462 0.0000e+00
     21.000     8.5307    31.2866    9.75187  102.38170    24.2832 2.1235e+00     20.991     0.5047 0.0000e+00
     20.000     8.5399    31.2772    9.74548  102.52903    24.2748 2.2493e+00     19.955     0.4744 0.0000e+00
     19.000     8.5519    31.2644    9.71515  102.37289    24.2637 2.4013e+00     18.977     0.4923 0.0000e+00
     18.000     8.5597    31.2468    9.69462  102.21828    24.2482 2.5957e+00     18.004     0.4933 0.0000e+00
     17.000     8.5657    31.2354    9.68758  102.22703    24.2381 2.8393e+00     17.014     0.4782 0.0000e+00
     16.000     8.5785    31.2286    9.67781  102.19914    24.2320 3.1306e+00     16.115     0.4889 0.0000e+00
     15.000     8.6020    31.2125    9.67144  102.19340    24.2177 3.5138e+00     15.183     0.5075 0.0000e+00
     14.000     8.6331    31.1835    9.66621  102.21056    24.1918 3.9903e+00     14.204     0.5095 0.0000e+00
     13.000     8.7092    31.1497    9.64659  102.05793    24.1610 4.6299e+00     13.270     0.4455 0.0000e+00
     12.000     8.8431    31.0632    9.63329  102.01882    24.0824 5.5281e+00     12.260     0.4383 0.0000e+00
     11.000     8.9350    30.9244    9.62218  102.01211    23.9529 6.6536e+00     11.188     0.4151 0.0000e+00
     10.000     8.9817    30.8539    9.59838  101.92809    23.8841 8.1221e+00     10.172     0.4465 0.0000e+00
      9.000     9.0378    30.8227    9.59032  102.09848    23.8519 1.0123e+01      9.117     0.4652 0.0000e+00
      8.000     9.0950    30.7840    9.52603  101.45743    23.8151 1.2662e+01      8.127     0.4764 0.0000e+00
      7.000     9.1377    30.7054    9.39222   99.89040    23.7423 1.6052e+01      7.153     0.4462 0.0000e+00
      6.000     9.1913    30.6666 -9.990e-29 -9.990e-29    23.7061 2.0645e+01      6.142     0.4719 0.0000e+00
      5.000     9.2495    30.6031 -9.990e-29 -9.990e-29    23.6486 2.6728e+01      5.186     0.4612 0.0000e+00
      4.000     9.3115    30.5424 -9.990e-29 -9.990e-29    23.5924 3.6305e+01      4.275     0.4821 0.0000e+00
      3.000     9.4153    30.4560 -9.990e-29 -9.990e-29    23.5151 4.9465e+01      3.388     0.5707 0.0000e+00
      2.000     9.5520    30.3465 -9.990e-29 -9.990e-29    23.4146 6.6492e+01      2.640     0.7070 0.0000e+00
      1.000     9.6369    30.2216 -9.990e-29 -9.990e-29    23.2954 1.4317e+02      1.997     0.8303 0.0000e+00
