* Sea-Bird SBE19plus Data File:
* FileName = C:\data\otf\2007\ctd-07087.hex
* Software Version 1.55
* Temperature SN =  5061
* Conductivity SN =  5061
* System UpLoad Time = Aug 15 2007 16:23:53
* ds
* SeacatPlus V 1.6a  SERIAL NO. 5061    15 Aug 2007  15:31:53
* vbatt = 10.9, vlith =  8.7, ioper =  61.6 ma, ipump =  57.5 ma, 
* iext01 =  95.2 ma
* iext23 =  58.1 ma
* 
* status = not logging
* number of scans to average = 1
* samples = 153039, free = 288466, casts = 154
* mode = profile, minimum cond freq = 3000, pump delay = 60 sec
* autorun = no, ignore magnetic switch = no
* battery type = alkaline, battery cutoff =  7.3 volts
* pressure sensor = strain gauge, range = 870.0
* SBE 38 = no, Gas Tension Device = no
* Ext Volt 0 = yes, Ext Volt 1 = yes, Ext Volt 2 = yes, Ext Volt 3 = yes
* echo commands = yes
* output format = raw HEX
* S>
* 
* SeacatPlus V 1.6a  SERIAL NO. 5061    15 Aug 2007  15:32:18
* temperature:  05-oct-06
*     TA0 = 1.254184e-03
*     TA1 = 2.596730e-04
*     TA2 = 5.165612e-07
*     TA3 = 1.318931e-07
*     TOFFSET = 0.000000e+00
* conductivity:  05-oct-06
*     G = -9.978144e-01
*     H = 1.555200e-01
*     I = -4.839108e-04
*     J = 6.121100e-05
*     CF0 = 2.539936e+03
*     CPCOR = -9.570000e-08
*     CTCOR = 3.250000e-06
*     CSLOPE = 1.000000e+00
* pressure S/N = 2362539, range = 870 psia:  24-aug-06
*     PA0 = 2.171091e-01
*     PA1 = 2.647085e-03
*     PA2 = 1.419397e-11
*     PTCA0 = 5.242437e+05
*     PTCA1 = 7.545345e+00
*     PTCA2 = -1.835354e-01
*     PTCB0 = 2.537125e+01
*     PTCB1 = -1.750000e-03
*     PTCB2 = 0.000000e+00
*     PTEMPA0 = -5.753989e+01
*     PTEMPA1 = 5.235813e+01
*     PTEMPA2 = -4.015521e-02
*     POFFSET = 0.000000e+00
* volt 0: offset = -4.682842e-02, slope = 1.249147e+00
* volt 1: offset = -4.695158e-02, slope = 1.248145e+00
* volt 2: offset = -4.685263e-02, slope = 1.248783e+00
* volt 3: offset = -4.690316e-02, slope = 1.249508e+00
*     EXTFREQSF = 1.000002e+00
* dh
* cast  87 16 Jul 2007 08:48:26 samples 55400 to 55637, avg = 4, stop = mag switch
* S> 
# nquan = 10
# nvalues = 119                         
# units = specified
# name 0 = depSM: Depth [salt water, m]
# name 1 = tv290C: Temperature [ITS-90, deg C]
# name 2 = sal00: Salinity [PSU]
# name 3 = sbeox0Mg/L: Oxygen, SBE 43 [mg/l]
# name 4 = sbeox0PS: Oxygen, SBE 43 [% saturation]
# name 5 = sigma-t00: Density [sigma-t, Kg/m^3 ]
# name 6 = par: PAR/Irradiance, Biospherical/Licor
# name 7 = prdM: Pressure, Strain Gauge [db]
# name 8 = flECO-AFL: Fluorescence, Wetlab ECO-AFL/FL [mg/m^3]
# name 9 = flag: flag
# span 0 =      1.000,     61.000       
# span 1 =     7.8475,     8.2710       
# span 2 =    31.5994,    31.7908       
# span 3 =    9.14663,   11.62367       
# span 4 =   95.07193,  102.35367       
# span 5 =    24.5676,    24.7762       
# span 6 = 1.5821e+00, 2.9117e+02       
# span 7 =      1.836,     60.461       
# span 8 =     0.5085,     1.3673       
# span 9 = 0.0000e+00, 0.0000e+00       
# interval = meters: 1                  
# start_time = Jul 16 2007 08:48:26
# bad_flag = -9.990e-29
# sensor 0 = Frequency 0  temperature, 5061, 05-Oct-06
# sensor 1 = Frequency 1  conductivity, 5061, 05-Oct-06, cpcor = -9.5700e-08
# sensor 2 = Pressure Number
# sensor 3 = Extrnl Volt  0  irradiance (PAR), primary, 4751, 08/10/06
# sensor 4 = Extrnl Volt  1  Oxygen, SBE, primary, 1081, 10/24/06
# sensor 5 = Extrnl Volt  2  WET Labs, ECO_AFL
# sensor 6 = Extrnl Volt  3  userpoly 0, 0627, 10/11/06
# datcnv_date = Oct 15 2007 14:49:46, 5.37e
# datcnv_in = I:\bob d\OTF_GEM\2007\ctd-07087.hex I:\Willette\OTF\CTD\5061.con
# datcnv_skipover = 0
# filter_date = Oct 15 2007 15:02:27, 5.37e
# filter_in = I:\Willette\OTF\CTD\2007\CTD Data\ctd-07087.cnv
# filter_low_pass_tc_A = 1.000
# filter_low_pass_tc_B = 0.150
# filter_low_pass_A_vars = prdM
# filter_low_pass_B_vars =
# loopedit_date = Oct 15 2007 15:06:49, 5.37e
# loopedit_in = I:\Willette\OTF\CTD\2007\CTD Data\ctd-07087.cnv
# loopedit_minVelocity = 0.250                                                                                            
# loopedit_surfaceSoak: minDepth = 5.0, maxDepth = 20, useDeckPress = 1                                                   
# loopedit_excl_bad_scans = yes
# alignctd_date = Oct 15 2007 15:14:16, 5.37e
# alignctd_in = I:\Willette\OTF\CTD\2007\CTD Data\ctd-07087.cnv
# alignctd_adv = tv290C 0.500, sbeox0Mg/L 4.000, sbeox0PS 4.000                                                                                                                                                                      
# binavg_date = Oct 15 2007 15:18:45, 5.37e
# binavg_in = I:\Willette\OTF\CTD\2007\CTD Data\ctd-07087.cnv
# binavg_bintype = meters
# binavg_binsize = 1
# binavg_excl_bad_scans = yes
# binavg_skipover = 0
# binavg_surface_bin = no, min = 0.000, max = 0.000, value = 0.000
# file_type = ascii
*END*
      3.000     8.2032    31.6375    9.14663   95.07761    24.6023 1.0581e+02      4.506     0.8629 0.0000e+00
      4.000     8.1938    31.6331    9.14722   95.07193    24.6008 2.0598e+02      5.277     0.7532 0.0000e+00
      5.000     8.1906    31.6305    9.22335   95.86396    24.6000 2.1158e+02      6.033     0.7200 0.0000e+00
      6.000     8.1887    31.6291    9.22925   95.92265    24.5997 1.6474e+02      6.695     0.7159 0.0000e+00
      7.000     8.1837    31.6294    9.23450   95.96944    24.6003 1.3547e+02      7.363     0.7278 0.0000e+00
      8.000     8.1829    31.6288    9.26023   96.23544    24.6002 1.1957e+02      8.106     0.7630 0.0000e+00
      9.000     8.1796    31.6327    9.26593   96.29324    24.6040 9.9000e+01      8.931     0.8459 0.0000e+00
     10.000     8.1661    31.6365    9.28476   96.48292    24.6073 8.4099e+01     10.041     0.8612 0.0000e+00
     11.000     8.1587    31.6400    9.29507   96.58885    24.6118 7.1324e+01     11.149     0.9591 0.0000e+00
     12.000     8.1504    31.6458    9.30044   96.64243    24.6175 6.1869e+01     12.173     0.9322 0.0000e+00
     13.000     8.1452    31.6484    9.30096   96.63681    24.6205 5.3023e+01     13.213     0.9181 0.0000e+00
     14.000     8.1369    31.6518    9.30453   96.66577    24.6241 4.5101e+01     14.191     0.8686 0.0000e+00
     15.000     8.1264    31.6542    9.32399   96.83982    24.6266 3.8227e+01     15.135     0.8541 0.0000e+00
     16.000     8.1192    31.6614    9.34301   96.97480    24.6338 3.2347e+01     16.158     0.8355 0.0000e+00
     17.000     8.1183    31.6680    9.41373   97.70363    24.6407 2.7790e+01     17.219     0.8549 0.0000e+00
     18.000     8.1157    31.6702    9.53465   98.97811    24.6428 2.4086e+01     18.162     0.8676 0.0000e+00
     19.000     8.1128    31.6700    9.61243   99.76527    24.6428 2.0727e+01     19.268     0.8412 0.0000e+00
     20.000     8.1124    31.6718    9.65595  100.20130    24.6448 1.8017e+01     20.304     0.8554 0.0000e+00
     21.000     8.1092    31.6727    9.68524  100.46443    24.6456 1.5642e+01     21.437     0.9057 0.0000e+00
     22.000     8.1091    31.6721    9.70202  100.59229    24.6455 1.3661e+01     22.415     0.8994 0.0000e+00
     23.000     8.1083    31.6728    9.71377  100.66088    24.6462 1.1952e+01     23.370     0.8779 0.0000e+00
     24.000     8.1039    31.6720    9.72339  100.74165    24.6455 1.0511e+01     24.318     0.9043 0.0000e+00
     25.000     8.0993    31.6722    9.73551  100.83760    24.6459 9.2428e+00     25.292     0.8804 0.0000e+00
     26.000     8.0958    31.6757    9.75925  100.95620    24.6495 8.1447e+00     26.330     0.8480 0.0000e+00
     27.000     8.0737    31.6794    9.76741  100.98277    24.6531 7.2183e+00     27.392     0.8566 0.0000e+00
     28.000     8.0522    31.6812    9.77449  101.09500    24.6557 6.4743e+00     28.306     0.8948 0.0000e+00
     29.000     8.0551    31.6930    9.78193  101.16272    24.6686 5.8019e+00     29.276     0.9571 0.0000e+00
     30.000     8.0584    31.6988    9.78674  101.20660    24.6749 5.2073e+00     30.218     0.9569 0.0000e+00
     31.000     8.0519    31.6989    9.78917  101.22877    24.6746 4.7098e+00     31.140     0.9003 0.0000e+00
     32.000     8.0438    31.6934    9.79400  101.26386    24.6696 4.2768e+00     32.090     0.9203 0.0000e+00
     33.000     8.0344    31.6999    9.79809  101.29756    24.6761 3.8919e+00     33.125     0.9700 0.0000e+00
     34.000     8.0071    31.7006    9.80222  101.33539    24.6777 3.5712e+00     34.133     0.9460 0.0000e+00
     35.000     7.9812    31.7107    9.80779  101.38639    24.6883 3.2923e+00     35.251     0.9620 0.0000e+00
     36.000     7.9645    31.7176    9.80999  101.40690    24.6970 3.0596e+00     36.298     0.9892 0.0000e+00
     37.000     7.9494    31.7395    9.81300  101.43827    24.7188 2.8469e+00     37.331     1.0382 0.0000e+00
     38.000     7.8818    31.7418    9.81732  101.48246    24.7219 2.6664e+00     38.532     1.1255 0.0000e+00
     39.000     7.8703    31.7479    9.82170  101.52853    24.7315 2.5210e+00     39.468     1.1339 0.0000e+00
     40.000     7.8747    31.7769    9.82244  101.53671    24.7609 2.3876e+00     40.511     1.2152 0.0000e+00
     41.000     7.8697    31.7827    9.82329  101.54693    24.7663 2.2707e+00     41.391     1.3074 0.0000e+00
     42.000     7.8664    31.7770    9.82484  101.56268    24.7612 2.1633e+00     42.434     1.2053 0.0000e+00
     43.000     7.8659    31.7823    9.82789  101.59338    24.7665 2.0826e+00     43.326     1.1673 0.0000e+00
     44.000     7.8533    31.7838    9.83337  101.64899    24.7678 2.0020e+00     44.375     1.1901 0.0000e+00
     45.000     7.8538    31.7794    9.83006  101.61383    24.7646 1.9448e+00     45.308     1.2708 0.0000e+00
     46.000     7.8510    31.7867    9.83257  101.63959    24.7717 1.8889e+00     46.243     1.2814 0.0000e+00
     47.000     7.8484    31.7876    9.83695  101.68524    24.7728 1.8420e+00     47.283     1.2659 0.0000e+00
     48.000     7.8475    31.7882    9.83905  101.70768    24.7737 1.7989e+00     48.413     1.2920 0.0000e+00
     49.000     7.8481    31.7908    9.83064  101.61981    24.7762 1.7641e+00     49.565     1.2829 0.0000e+00
     50.000     7.8480    31.7900    9.83908  101.70718    24.7754 1.7354e+00     50.263     1.2400 0.0000e+00
     51.000     7.8480    31.7898    9.84345  101.75203    24.7752 1.7094e+00     51.382     1.2636 0.0000e+00
     52.000     7.8483    31.7899    9.83609  101.67621    24.7753 1.6866e+00     52.318     1.3086 0.0000e+00
     53.000     7.8498    31.7899    9.82959  101.60927    24.7753 1.6677e+00     53.353     1.1865 0.0000e+00
     54.000     7.8486    31.7896    9.82970  101.61112    24.7750 1.6517e+00     54.159     1.2197 0.0000e+00
     55.000     7.8481    31.7899    9.82522  101.56695    24.7751 1.6370e+00     55.358     1.1769 0.0000e+00
     56.000     7.8477    31.7897    9.82379  101.55056    24.7751 1.6259e+00     56.151     1.2779 0.0000e+00
     57.000     7.8476    31.7897    9.82565  101.57093    24.7751 1.6152e+00     56.980     1.3151 0.0000e+00
     58.000     7.8477    31.7901    9.83231  101.64020    24.7755 1.6057e+00     57.925     1.3209 0.0000e+00
     59.000     7.8479    31.7899    9.82672  101.58097    24.7753 1.5980e+00     58.623     1.3673 0.0000e+00
     60.000     7.8477    31.7897    9.82780  101.59499    24.7752 1.5916e+00     59.384     1.2649 0.0000e+00
     61.000     7.8476    31.7900    9.83264  101.65617    24.7754 1.5821e+00     60.461     1.3095 0.0000e+00
     60.000     7.8490    31.7898    9.83726  101.70505    24.7751 1.5899e+00     60.010     1.3640 0.0000e+00
     59.000     7.8487    31.7898    9.83583  101.67755    24.7751 1.5966e+00     59.024     1.2821 0.0000e+00
     58.000     7.8527    31.7896    9.83524  101.67111    24.7749 1.6048e+00     58.210     1.2703 0.0000e+00
     57.000     7.8528    31.7895    9.83946  101.71771    24.7744 1.6133e+00     57.355     1.2313 0.0000e+00
     56.000     7.8526    31.7866    9.83483  101.67379    24.7718 1.6246e+00     56.444     1.2969 0.0000e+00
     55.000     7.8553    31.7883    9.83798  101.71303    24.7733 1.6370e+00     55.451     1.2649 0.0000e+00
     54.000     7.8549    31.7868    9.83641  101.70520    24.7717 1.6507e+00     54.605     1.3307 0.0000e+00
     53.000     7.8526    31.7871    9.83705  101.71289    24.7721 1.6680e+00     53.438     1.2075 0.0000e+00
     52.000     7.8501    31.7873    9.83794  101.71407    24.7725 1.6878e+00     52.493     1.2665 0.0000e+00
     51.000     7.8494    31.7888    9.83451  101.68991    24.7741 1.7103e+00     51.483     1.2818 0.0000e+00
     50.000     7.8514    31.7894    9.83128  101.68336    24.7747 1.7359e+00     50.480     1.2587 0.0000e+00
     49.000     7.8527    31.7886    9.83056  101.69880    24.7738 1.7656e+00     49.475     1.2650 0.0000e+00
     48.000     7.8564    31.7883    9.83160  101.69772    24.7734 1.8012e+00     48.522     1.2173 0.0000e+00
     47.000     7.8610    31.7867    9.83347  101.72039    24.7716 1.8419e+00     47.443     1.2655 0.0000e+00
     46.000     7.8606    31.7843    9.84131  101.81031    24.7690 1.8891e+00     46.479     1.2395 0.0000e+00
     45.000     7.8575    31.7844    9.84000  101.82084    24.7694 1.9445e+00     45.426     1.2120 0.0000e+00
     44.000     7.8658    31.7874    9.83931  101.90986    24.7721 2.0058e+00     44.319     1.2217 0.0000e+00
     43.000     7.8813    31.7840    9.83598  101.84924    24.7682 2.0847e+00     43.371     1.2489 0.0000e+00
     42.000     7.8825    31.7761    9.83391  101.83213    24.7595 2.1701e+00     42.371     1.1933 0.0000e+00
     41.000     7.8809    31.7743    9.82414  101.70284    24.7581 2.2671e+00     41.331     1.2049 0.0000e+00
     40.000     7.8832    31.7764    9.81606  101.68883    24.7600 2.3816e+00     40.275     1.2348 0.0000e+00
     39.000     7.8872    31.7759    9.81448  101.78648    24.7593 2.5184e+00     39.329     1.1986 0.0000e+00
     38.000     7.9016    31.7731    9.81767  101.92825    24.7566 2.6755e+00     38.247     1.1772 0.0000e+00
     37.000     7.9444    31.7755    9.82031  101.99079    24.7580 2.8478e+00     37.340     1.1304 0.0000e+00
     36.000     7.9328    31.7559    9.81744  101.96984    24.7368 3.0586e+00     36.318     1.0639 0.0000e+00
     35.000     7.9367    31.7523    9.81460  101.94729    24.7344 3.2963e+00     35.290     1.1113 0.0000e+00
     34.000     7.9289    31.7513    9.81708  101.97809    24.7323 3.5752e+00     34.313     1.1701 0.0000e+00
     33.000     7.9207    31.7514    9.81401  101.95226    24.7335 3.9007e+00     33.196     1.2274 0.0000e+00
     32.000     7.9848    31.7611    9.81613  101.98052    24.7422 4.2789e+00     32.306     1.1799 0.0000e+00
     31.000     8.0439    31.7331    9.81508  101.97528    24.7111 4.7193e+00     31.171     1.0892 0.0000e+00
     30.000     8.0754    31.7134    9.82159  102.04586    24.6888 5.2111e+00     30.216     1.0211 0.0000e+00
     29.000     8.0852    31.6851    9.82048  102.03683    24.6611 5.8019e+00     29.286     0.8878 0.0000e+00
     28.000     8.0883    31.6796    9.81864  102.01790    24.6551 6.4798e+00     28.241     0.9066 0.0000e+00
     27.000     8.0913    31.6769    9.81678  102.00179    24.6525 7.2372e+00     27.326     0.9127 0.0000e+00
     26.000     8.0939    31.6752    9.81900  102.03181    24.6507 8.1774e+00     26.307     0.8131 0.0000e+00
     25.000     8.0969    31.6731    9.82343  102.08852    24.6486 9.2689e+00     25.243     0.8750 0.0000e+00
     24.000     8.1004    31.6712    9.81466  102.00252    24.6468 1.0550e+01     24.242     0.8757 0.0000e+00
     23.000     8.1031    31.6689    9.80886  101.94873    24.6444 1.2007e+01     23.162     0.8699 0.0000e+00
     22.000     8.1048    31.6672    9.81958  102.06778    24.6427 1.3777e+01     22.176     0.8441 0.0000e+00
     21.000     8.1060    31.6656    9.82185  102.10638    24.6413 1.5753e+01     21.230     0.8181 0.0000e+00
     20.000     8.1062    31.6652    9.82472  102.15856    24.6406 1.8194e+01     20.071     0.8976 0.0000e+00
     19.000     8.1085    31.6651    9.81998  102.12611    24.6406 2.1124e+01     19.100     0.9499 0.0000e+00
     18.000     8.1128    31.6637    9.81418  102.10031    24.6392 2.4632e+01     18.082     0.8677 0.0000e+00
     17.000     8.1168    31.6618    9.81358  102.11872    24.6372 2.9142e+01     17.079     0.8667 0.0000e+00
     16.000     8.1195    31.6586    9.81963  102.19266    24.6341 3.4944e+01     16.118     0.8937 0.0000e+00
     15.000     8.1226    31.6564    9.82036  102.20847    24.6317 4.1558e+01     14.951     0.8763 0.0000e+00
     14.000     8.1256    31.6550    9.81251  102.13257    24.6304 4.7620e+01     14.095     0.8884 0.0000e+00
     13.000     8.1318    31.6530    9.81432  102.17555    24.6284 5.3657e+01     13.084     0.9052 0.0000e+00
     12.000     8.1416    31.6501    9.81862  102.27773    24.6255 6.2387e+01     12.044     0.8675 0.0000e+00
     11.000     8.1502    31.6441    9.81734  102.31409    24.6194 7.5457e+01     11.044     0.8624 0.0000e+00
     10.000     8.1571    31.6383    9.84836  102.35367    24.6137 8.8076e+01     10.096     0.8757 0.0000e+00
      9.000     8.1753    31.6341    9.74709  101.59000    24.6092 1.0732e+02      9.096     0.8916 0.0000e+00
      8.000     8.1846    31.6281    9.76993  100.70257    24.6025 1.3123e+02      8.208     0.8945 0.0000e+00
      7.000     8.1905    31.6198   11.24845   99.95182    24.5941 1.5566e+02      7.167     0.8636 0.0000e+00
      6.000     8.1929    31.6159   11.37286   99.80497    24.5900 1.8091e+02      6.275     0.8508 0.0000e+00
      5.000     8.1960    31.6160   11.47573   99.88219    24.5898 2.2392e+02      5.330     0.7389 0.0000e+00
      4.000     8.2031    31.6151   11.58661   99.95222    24.5885 2.5775e+02      4.351     0.6565 0.0000e+00
      3.000     8.2265    31.6172   11.52421   99.99144    24.5895 2.9117e+02      3.487     0.6002 0.0000e+00
      2.000     8.2572    31.6134   11.56074  100.03252    24.5831 1.2052e+02      2.629     0.5450 0.0000e+00
      1.000     8.2710    31.5994   11.62367  100.02138    24.5676 1.9764e+02      1.836     0.5085 0.0000e+00
