* Sea-Bird SBE19plus Data File:
* FileName = C:\data\otf\2007\ctd-07097.hex
* Software Version 1.55
* Temperature SN =  5061
* Conductivity SN =  5061
* System UpLoad Time = Aug 15 2007 16:32:13
* ds
* SeacatPlus V 1.6a  SERIAL NO. 5061    15 Aug 2007  15:31:53
* vbatt = 10.9, vlith =  8.7, ioper =  61.6 ma, ipump =  57.5 ma, 
* iext01 =  95.2 ma
* iext23 =  58.1 ma
* 
* status = not logging
* number of scans to average = 1
* samples = 153039, free = 288466, casts = 154
* mode = profile, minimum cond freq = 3000, pump delay = 60 sec
* autorun = no, ignore magnetic switch = no
* battery type = alkaline, battery cutoff =  7.3 volts
* pressure sensor = strain gauge, range = 870.0
* SBE 38 = no, Gas Tension Device = no
* Ext Volt 0 = yes, Ext Volt 1 = yes, Ext Volt 2 = yes, Ext Volt 3 = yes
* echo commands = yes
* output format = raw HEX
* S>
* 
* SeacatPlus V 1.6a  SERIAL NO. 5061    15 Aug 2007  15:32:18
* temperature:  05-oct-06
*     TA0 = 1.254184e-03
*     TA1 = 2.596730e-04
*     TA2 = 5.165612e-07
*     TA3 = 1.318931e-07
*     TOFFSET = 0.000000e+00
* conductivity:  05-oct-06
*     G = -9.978144e-01
*     H = 1.555200e-01
*     I = -4.839108e-04
*     J = 6.121100e-05
*     CF0 = 2.539936e+03
*     CPCOR = -9.570000e-08
*     CTCOR = 3.250000e-06
*     CSLOPE = 1.000000e+00
* pressure S/N = 2362539, range = 870 psia:  24-aug-06
*     PA0 = 2.171091e-01
*     PA1 = 2.647085e-03
*     PA2 = 1.419397e-11
*     PTCA0 = 5.242437e+05
*     PTCA1 = 7.545345e+00
*     PTCA2 = -1.835354e-01
*     PTCB0 = 2.537125e+01
*     PTCB1 = -1.750000e-03
*     PTCB2 = 0.000000e+00
*     PTEMPA0 = -5.753989e+01
*     PTEMPA1 = 5.235813e+01
*     PTEMPA2 = -4.015521e-02
*     POFFSET = 0.000000e+00
* volt 0: offset = -4.682842e-02, slope = 1.249147e+00
* volt 1: offset = -4.695158e-02, slope = 1.248145e+00
* volt 2: offset = -4.685263e-02, slope = 1.248783e+00
* volt 3: offset = -4.690316e-02, slope = 1.249508e+00
*     EXTFREQSF = 1.000002e+00
* dh
* cast  97 19 Jul 2007 15:04:46 samples 64797 to 65125, avg = 4, stop = mag switch
* S> 
# nquan = 10
# nvalues = 148                         
# units = specified
# name 0 = depSM: Depth [salt water, m]
# name 1 = tv290C: Temperature [ITS-90, deg C]
# name 2 = sal00: Salinity [PSU]
# name 3 = sbeox0Mg/L: Oxygen, SBE 43 [mg/l]
# name 4 = sbeox0PS: Oxygen, SBE 43 [% saturation]
# name 5 = sigma-t00: Density [sigma-t, Kg/m^3 ]
# name 6 = par: PAR/Irradiance, Biospherical/Licor
# name 7 = prdM: Pressure, Strain Gauge [db]
# name 8 = flECO-AFL: Fluorescence, Wetlab ECO-AFL/FL [mg/m^3]
# name 9 = flag: flag
# span 0 =      1.000,     76.000       
# span 1 =     8.5382,    10.2027       
# span 2 =    30.2685,    31.5084       
# span 3 =    8.30954,   10.95846       
# span 4 =   89.10486,  102.56939       
# span 5 =    23.2274,    24.4544       
# span 6 = 1.5405e+00, 2.0580e+03       
# span 7 =      1.803,     75.267       
# span 8 =     0.4031,     0.9959       
# span 9 = 0.0000e+00, 0.0000e+00       
# interval = meters: 1                  
# start_time = Jul 19 2007 15:04:46
# bad_flag = -9.990e-29
# sensor 0 = Frequency 0  temperature, 5061, 05-Oct-06
# sensor 1 = Frequency 1  conductivity, 5061, 05-Oct-06, cpcor = -9.5700e-08
# sensor 2 = Pressure Number
# sensor 3 = Extrnl Volt  0  irradiance (PAR), primary, 4751, 08/10/06
# sensor 4 = Extrnl Volt  1  Oxygen, SBE, primary, 1081, 10/24/06
# sensor 5 = Extrnl Volt  2  WET Labs, ECO_AFL
# sensor 6 = Extrnl Volt  3  userpoly 0, 0627, 10/11/06
# datcnv_date = Oct 15 2007 14:49:47, 5.37e
# datcnv_in = I:\bob d\OTF_GEM\2007\ctd-07097.hex I:\Willette\OTF\CTD\5061.con
# datcnv_skipover = 0
# filter_date = Oct 15 2007 15:02:29, 5.37e
# filter_in = I:\Willette\OTF\CTD\2007\CTD Data\ctd-07097.cnv
# filter_low_pass_tc_A = 1.000
# filter_low_pass_tc_B = 0.150
# filter_low_pass_A_vars = prdM
# filter_low_pass_B_vars =
# loopedit_date = Oct 15 2007 15:06:50, 5.37e
# loopedit_in = I:\Willette\OTF\CTD\2007\CTD Data\ctd-07097.cnv
# loopedit_minVelocity = 0.250                                                                                            
# loopedit_surfaceSoak: minDepth = 5.0, maxDepth = 20, useDeckPress = 1                                                   
# loopedit_excl_bad_scans = yes
# alignctd_date = Oct 15 2007 15:14:17, 5.37e
# alignctd_in = I:\Willette\OTF\CTD\2007\CTD Data\ctd-07097.cnv
# alignctd_adv = tv290C 0.500, sbeox0Mg/L 4.000, sbeox0PS 4.000                                                                                                                                                                      
# binavg_date = Oct 15 2007 15:18:46, 5.37e
# binavg_in = I:\Willette\OTF\CTD\2007\CTD Data\ctd-07097.cnv
# binavg_bintype = meters
# binavg_binsize = 1
# binavg_excl_bad_scans = yes
# binavg_skipover = 0
# binavg_surface_bin = no, min = 0.000, max = 0.000, value = 0.000
# file_type = ascii
*END*
      4.000    10.1408    30.3365    8.30954   89.10486    23.2760 1.7695e+02      5.107     0.5991 0.0000e+00
      5.000    10.0576    30.3269    8.42840   90.32603    23.2736 1.5140e+02      5.891     0.6430 0.0000e+00
      6.000    10.0072    30.3114    8.55514   91.64039    23.2725 1.2423e+02      6.664     0.6908 0.0000e+00
      7.000 -9.990e-29 -9.990e-29 -9.990e-29 -9.990e-29 -9.990e-29 -9.990e-29 -9.990e-29 -9.990e-29 -9.990e-29
      8.000     9.9860    30.3202    8.67637   92.91449    23.2952 8.1526e+01      7.726     0.7819 0.0000e+00
      9.000     9.9905    30.3478    8.59848   91.95538    23.3247 4.8970e+01      8.832     0.8056 0.0000e+00
     10.000     9.9689    30.3510    8.64314   92.33229    23.3264 3.6142e+01      9.813     0.7829 0.0000e+00
     11.000     9.9570    30.3336    8.66089   92.45367    23.3139 2.5701e+01     10.887     0.7685 0.0000e+00
     12.000     9.9515    30.3381    8.75077   93.34335    23.3208 1.7972e+01     11.723     0.7431 0.0000e+00
     13.000     9.9496    30.3347    8.93743   95.30291    23.3187 1.2660e+01     12.545     0.7553 0.0000e+00
     14.000     9.9637    30.3497    9.08640   96.83359    23.3312 9.2806e+00     13.476     0.7662 0.0000e+00
     15.000     9.8814    30.4151    9.23852   98.24565    23.3812 6.5855e+00     15.309     0.7393 0.0000e+00
     16.000     9.8209    30.3775    9.28715   98.66742    23.3649 5.1994e+00     16.474     0.7135 0.0000e+00
     17.000     9.7967    30.3866    9.32740   99.07833    23.3782 4.1269e+00     17.412     0.7040 0.0000e+00
     18.000     9.7260    30.4198    9.35776   99.37627    23.4094 3.3072e+00     18.393     0.6673 0.0000e+00
     19.000     9.6615    30.4423    9.38298   99.58315    23.4342 2.7547e+00     19.376     0.6565 0.0000e+00
     20.000     9.6273    30.5009    9.40408   99.66932    23.4917 2.3702e+00     20.277     0.5946 0.0000e+00
     21.000     9.5809    30.5326    9.42776   99.80652    23.5238 2.1063e+00     21.390     0.6048 0.0000e+00
     22.000     9.5580    30.5444    9.44841   99.98324    23.5396 1.9325e+00     22.394     0.5943 0.0000e+00
     23.000     9.5041    30.5619    9.47077  100.19206    23.5575 1.8119e+00     23.341     0.5760 0.0000e+00
     24.000     9.4502    30.5753    9.49079  100.37428    23.5701 1.7360e+00     24.060     0.5784 0.0000e+00
     25.000     9.4164    30.6264    9.51007  100.54577    23.6181 1.6741e+00     24.884     0.5671 0.0000e+00
     26.000     9.3633    30.6955    9.52452  100.61449    23.6834 1.6298e+00     25.988     0.5941 0.0000e+00
     27.000     9.3213    30.7709    9.54877  100.83585    23.7546 1.6035e+00     27.676     0.6338 0.0000e+00
     28.000     9.3244    30.7900    9.55685  100.88441    23.7732 1.5892e+00     28.565     0.6472 0.0000e+00
     29.000     9.2780    30.7926    9.57090  100.95746    23.7756 1.5756e+00     29.647     0.6803 0.0000e+00
     30.000     9.2069    30.8158    9.58173  101.03249    23.7973 1.5667e+00     30.512     0.6881 0.0000e+00
     31.000     9.1457    30.8448    9.59018  101.08378    23.8242 1.5598e+00     31.332     0.6975 0.0000e+00
     32.000 -9.990e-29 -9.990e-29 -9.990e-29 -9.990e-29 -9.990e-29 -9.990e-29 -9.990e-29 -9.990e-29 -9.990e-29
     33.000     9.0982    30.9688    9.60942  101.17148    23.9408 1.5516e+00     32.929     0.7483 0.0000e+00
     34.000     9.0741    31.0112    9.62357  101.22042    23.9809 1.5489e+00     34.267     0.7841 0.0000e+00
     35.000     9.0478    31.0268    9.63344  101.29924    23.9960 1.5470e+00     35.293     0.7987 0.0000e+00
     36.000     9.0015    31.0476    9.64705  101.43376    24.0158 1.5455e+00     36.292     0.7895 0.0000e+00
     37.000     8.9791    31.0722    9.65320  101.48480    24.0390 1.5450e+00     37.429     0.8266 0.0000e+00
     38.000     8.9737    31.1111    9.65689  101.51337    24.0762 1.5442e+00     38.313     0.8572 0.0000e+00
     39.000     8.9529    31.1176    9.65942  101.51992    24.0825 1.5435e+00     39.274     0.8329 0.0000e+00
     40.000     8.9052    31.1363    9.67012  101.61933    24.1003 1.5433e+00     40.481     0.8285 0.0000e+00
     41.000     8.8800    31.1665    9.67635  101.67774    24.1289 1.5428e+00     41.399     0.8408 0.0000e+00
     42.000     8.8514    31.1976    9.67747  101.67450    24.1586 1.5423e+00     42.379     0.8415 0.0000e+00
     43.000     8.7941    31.2220    9.69000  101.79504    24.1822 1.5422e+00     43.563     0.8329 0.0000e+00
     44.000     8.7519    31.2567    9.69692  101.85992    24.2153 1.5421e+00     44.534     0.8226 0.0000e+00
     45.000     8.7291    31.2921    9.69855  101.87128    24.2493 1.5424e+00     45.372     0.8781 0.0000e+00
     46.000     8.7205    31.3240    9.70153  101.88821    24.2798 1.5423e+00     46.296     0.8576 0.0000e+00
     47.000     8.7145    31.3410    9.70941  101.96469    24.2962 1.5421e+00     47.452     0.8637 0.0000e+00
     48.000     8.7075    31.3463    9.71448  101.99651    24.3012 1.5421e+00     48.593     0.8706 0.0000e+00
     49.000     8.6978    31.3519    9.71245  101.96114    24.3066 1.5420e+00     49.629     0.8809 0.0000e+00
     50.000     8.6892    31.3574    9.71507  101.97299    24.3118 1.5420e+00     50.429     0.8830 0.0000e+00
     51.000     8.6837    31.3682    9.72056  102.01220    24.3220 1.5419e+00     51.492     0.8975 0.0000e+00
     52.000     8.6792    31.3744    9.72112  101.99864    24.3279 1.5420e+00     52.489     0.8857 0.0000e+00
     53.000     8.6699    31.3785    9.73034  102.05680    24.3317 1.5424e+00     53.562     0.8890 0.0000e+00
     54.000     8.6646    31.3856    9.73611  102.09680    24.3386 1.5421e+00     54.582     0.8825 0.0000e+00
     55.000     8.6602    31.3905    9.73640  102.07532    24.3432 1.5419e+00     55.536     0.8702 0.0000e+00
     56.000     8.6562    31.3954    9.74503  102.16052    24.3478 1.5417e+00     56.506     0.8723 0.0000e+00
     57.000     8.6492    31.3992    9.75107  102.22269    24.3514 1.5420e+00     57.513     0.8830 0.0000e+00
     58.000     8.6428    31.4068    9.75489  102.26321    24.3584 1.5423e+00     58.562     0.8761 0.0000e+00
     59.000     8.6319    31.4088    9.76237  102.34152    24.3604 1.5417e+00     59.565     0.8848 0.0000e+00
     60.000     8.6250    31.4170    9.75873  102.30434    24.3680 1.5422e+00     60.442     0.8932 0.0000e+00
     61.000     8.6126    31.4285    9.75682  102.28163    24.3788 1.5419e+00     61.546     0.8789 0.0000e+00
     62.000     8.6021    31.4378    9.75816  102.29355    24.3875 1.5416e+00     62.558     0.8781 0.0000e+00
     63.000     8.5924    31.4476    9.75896  102.29908    24.3966 1.5419e+00     63.383     0.8827 0.0000e+00
     64.000     8.5672    31.4599    9.75649  102.27320    24.4081 1.5418e+00     64.563     0.8926 0.0000e+00
     65.000     8.5579    31.4781    9.76249  102.33735    24.4252 1.5419e+00     65.427     0.9157 0.0000e+00
     66.000     8.5427    31.4892    9.76460  102.35937    24.4359 1.5419e+00     66.392     0.9271 0.0000e+00
     67.000     8.5410    31.5017    9.76328  102.34597    24.4479 1.5418e+00     67.441     0.9033 0.0000e+00
     68.000     8.5407    31.5081    9.75966  102.31203    24.4539 1.5419e+00     68.419     0.8816 0.0000e+00
     69.000     8.5408    31.5084    9.76242  102.34295    24.4544 1.5418e+00     69.375     0.9180 0.0000e+00
     70.000     8.5411    31.5084    9.76463  102.36672    24.4544 1.5415e+00     70.265     0.9082 0.0000e+00
     71.000     8.5405    31.5083    9.76562  102.37637    24.4543 1.5416e+00     71.243     0.8968 0.0000e+00
     72.000     8.5396    31.5077    9.76756  102.39553    24.4538 1.5416e+00     72.218     0.8994 0.0000e+00
     73.000     8.5382    31.5069    9.76602  102.38168    24.4534 1.5418e+00     73.173     0.8904 0.0000e+00
     74.000     8.5389    31.5065    9.76225  102.34123    24.4532 1.5416e+00     73.923     0.9033 0.0000e+00
     75.000     8.5389    31.5069    9.76011  102.31912    24.4535 1.5418e+00     74.826     0.8748 0.0000e+00
     76.000     8.5405    31.5065    9.76450  102.36970    24.4532 1.5417e+00     75.267     0.8774 0.0000e+00
     75.000     8.5416    31.5071    9.75936  102.31534    24.4532 1.5408e+00     75.135     0.9862 0.0000e+00
     74.000     8.5416    31.5072    9.77615  102.51340    24.4533 1.5405e+00     74.226     0.9586 0.0000e+00
     73.000     8.5420    31.5069    9.77537  102.56939    24.4531 1.5413e+00     73.049     0.9959 0.0000e+00
     72.000     8.5435    31.5079    9.77090  102.56668    24.4538 1.5414e+00     71.849     0.9830 0.0000e+00
     71.000     8.5423    31.5068    9.75849  102.45058    24.4527 1.5417e+00     71.057     0.9306 0.0000e+00
     70.000     8.5430    31.5075    9.75993  102.47763    24.4534 1.5418e+00     70.304     0.9809 0.0000e+00
     69.000     8.5437    31.5084    9.75704  102.46051    24.4541 1.5417e+00     69.399     0.9727 0.0000e+00
     68.000     8.5434    31.5077    9.75394  102.44072    24.4533 1.5417e+00     68.576     0.9211 0.0000e+00
     67.000     8.5525    31.5071    9.75196  102.43075    24.4530 1.5417e+00     67.680     0.9524 0.0000e+00
     66.000     8.5587    31.5026    9.75225  102.44366    24.4486 1.5419e+00     66.724     0.9564 0.0000e+00
     65.000     8.5686    31.4958    9.74532  102.38001    24.4421 1.5418e+00     65.772     0.9582 0.0000e+00
     64.000     8.5923    31.4900    9.74148  102.35013    24.4367 1.5414e+00     64.818     0.9440 0.0000e+00
     63.000     8.6115    31.4675    9.74877  102.43389    24.4157 1.5420e+00     63.776     0.9096 0.0000e+00
     62.000     8.6204    31.4445    9.74955  102.44659    24.3942 1.5419e+00     62.835     0.8918 0.0000e+00
     61.000     8.6318    31.4360    9.74341  102.39449    24.3860 1.5416e+00     61.822     0.9348 0.0000e+00
     60.000     8.6438    31.4234    9.74012  102.38156    24.3743 1.5418e+00     60.716     0.8867 0.0000e+00
     59.000     8.6538    31.4119    9.74110  102.40667    24.3636 1.5418e+00     59.700     0.9073 0.0000e+00
     58.000     8.6618    31.4030    9.73863  102.38748    24.3552 1.5418e+00     58.762     0.9012 0.0000e+00
     57.000     8.6697    31.3934    9.73374  102.34136    24.3462 1.5411e+00     57.679     0.9228 0.0000e+00
     56.000     8.6778    31.3862    9.73038  102.31473    24.3394 1.5420e+00     56.634     0.9046 0.0000e+00
     55.000     8.6819    31.3795    9.72797  102.30185    24.3332 1.5415e+00     55.679     0.8804 0.0000e+00
     54.000     8.6925    31.3751    9.72908  102.33260    24.3288 1.5418e+00     54.645     0.8839 0.0000e+00
     53.000     8.7055    31.3633    9.72457  102.29987    24.3178 1.5420e+00     53.643     0.8823 0.0000e+00
     52.000     8.7138    31.3501    9.72522  102.31467    24.3055 1.5421e+00     52.564     0.8645 0.0000e+00
     51.000     8.7177    31.3450    9.72319  102.29979    24.3006 1.5421e+00     51.609     0.8615 0.0000e+00
     50.000     8.7254    31.3399    9.72123  102.29030    24.2958 1.5419e+00     50.572     0.8793 0.0000e+00
     49.000     8.7379    31.3309    9.71806  102.27114    24.2874 1.5418e+00     49.529     0.8664 0.0000e+00
     48.000     8.7490    31.3187    9.72660  102.40782    24.2757 1.5420e+00     48.522     0.8477 0.0000e+00
     47.000     8.7541    31.3125    9.71928  102.39440    24.2697 1.5420e+00     47.472     0.8665 0.0000e+00
     46.000     8.7596    31.3077    9.70349  102.26900    24.2651 1.5419e+00     46.404     0.8551 0.0000e+00
     45.000     8.7672    31.3025    9.69445  102.23038    24.2602 1.5421e+00     45.445     0.8403 0.0000e+00
     44.000     8.7859    31.2946    9.69662  102.31690    24.2527 1.5421e+00     44.389     0.8279 0.0000e+00
     43.000     8.8201    31.2723    9.69181  102.32356    24.2314 1.5423e+00     43.443     0.8457 0.0000e+00
     42.000     8.8481    31.2383    9.67778  102.25858    24.1990 1.5425e+00     42.341     0.8446 0.0000e+00
     41.000     8.8780    31.2186    9.66735  102.25186    24.1801 1.5426e+00     41.302     0.8279 0.0000e+00
     40.000     8.9120    31.1954    9.65153  102.13732    24.1579 1.5429e+00     40.369     0.8342 0.0000e+00
     39.000     8.9397    31.1592    9.63806  102.12067    24.1233 1.5433e+00     39.214     0.8137 0.0000e+00
     38.000     8.9769    31.1398    9.62516  102.12398    24.1049 1.5437e+00     38.285     0.8185 0.0000e+00
     37.000     9.0166    31.1048    9.60173  101.92127    24.0716 1.5445e+00     37.216     0.8173 0.0000e+00
     36.000     9.0666    31.0690    9.59444  101.87720    24.0377 1.5455e+00     36.228     0.7694 0.0000e+00
     35.000     9.0980    31.0234    9.57574  101.74795    23.9945 1.5465e+00     35.225     0.7277 0.0000e+00
     34.000     9.1266    31.0004    9.56725  101.73755    23.9726 1.5481e+00     34.130     0.7594 0.0000e+00
     33.000     9.2354    30.9772    9.55446  101.84456    23.9509 1.5503e+00     33.063     0.7361 0.0000e+00
     32.000     9.2675    30.8849    9.52511  101.61196    23.8652 1.5533e+00     32.168     0.6936 0.0000e+00
     31.000     9.2899    30.8366    9.51544  101.56580    23.8190 1.5574e+00     31.223     0.6339 0.0000e+00
     30.000     9.2947    30.8198    9.49882  101.44198    23.8030 1.5634e+00     30.347     0.6346 0.0000e+00
     29.000     9.3147    30.8101    9.46163  101.11496    23.7939 1.5715e+00     29.203     0.6579 0.0000e+00
     28.000     9.3537    30.7928    9.46323  101.20417    23.7776 1.5829e+00     28.228     0.6175 0.0000e+00
     27.000     9.3659    30.7571    9.46531  101.31463    23.7443 1.5999e+00     27.306     0.5939 0.0000e+00
     26.000     9.5008    30.7384    9.46602  101.39944    23.7268 1.6245e+00     26.178     0.5875 0.0000e+00
     25.000     9.5771    30.6106    9.46319  101.40875    23.6072 1.6646e+00     25.168     0.5602 0.0000e+00
     24.000     9.6185    30.5379    9.45413  101.34141    23.5384 1.7211e+00     24.189     0.5379 0.0000e+00
     23.000     9.6556    30.4965    9.44429  101.26276    23.4992 1.7948e+00     23.191     0.5331 0.0000e+00
     22.000     9.6841    30.4627    9.44292  101.27518    23.4665 1.9157e+00     22.124     0.5483 0.0000e+00
     21.000     9.7180    30.4474    9.42995  101.15179    23.4508 2.0835e+00     21.208     0.5680 0.0000e+00
     20.000     9.7643    30.4247    9.42934  101.14751    23.4278 2.3404e+00     20.272     0.5910 0.0000e+00
     19.000     9.8155    30.3846    9.43365  101.20572    23.3873 2.7235e+00     19.055     0.6295 0.0000e+00
     18.000     9.8434    30.3580    9.43224  101.25425    23.3602 3.1962e+00     18.105     0.6067 0.0000e+00
     17.000     9.8588    30.3354    9.42220  101.30310    23.3378 3.9523e+00     17.152     0.6296 0.0000e+00
     16.000     9.8767    30.3236    9.42454  101.37142    23.3254 5.1714e+00     15.975     0.6533 0.0000e+00
     15.000     9.8881    30.3137    9.42495  101.40850    23.3156 6.7835e+00     15.018     0.6565 0.0000e+00
     14.000     9.8995    30.3067    9.42463  101.46455    23.3083 9.6474e+00     14.089     0.6769 0.0000e+00
     13.000     9.9072    30.2989    9.42443  101.49002    23.3000 1.3421e+01     13.064     0.6919 0.0000e+00
     12.000     9.9079    30.2951    9.41706  101.54390    23.2960 1.9099e+01     12.114     0.6722 0.0000e+00
     11.000     9.9090    30.2937    9.41496  101.61101    23.2945 2.7233e+01     11.135     0.6335 0.0000e+00
     10.000     9.9294    30.2943    9.39675  101.44827    23.2948 4.1148e+01     10.075     0.6702 0.0000e+00
      9.000     9.9890    30.2985    9.34390  100.86857    23.2955 6.3191e+01      9.126     0.6655 0.0000e+00
      8.000    10.0315    30.3087    9.70131   99.93734    23.2961 9.1959e+01      8.098     0.7029 0.0000e+00
      7.000    10.0286    30.2882   10.56641   99.29548    23.2711 1.3557e+02      7.216     0.7224 0.0000e+00
      6.000    10.0631    30.2897   10.87146   99.17623    23.2720 2.1347e+02      6.194     0.7311 0.0000e+00
      5.000    10.0868    30.2870   10.94641   99.25064    23.2645 3.1862e+02      5.104     0.6962 0.0000e+00
      4.000    10.1098    30.2830   10.94567   99.25067    23.2579 4.8434e+02      4.311     0.6282 0.0000e+00
      3.000    10.1784    30.2904   10.94913   99.22315    23.2598 7.6824e+02      3.360     0.5257 0.0000e+00
      2.000    10.2027    30.2788   10.95846   99.18518    23.2404 1.1612e+03      2.604     0.4351 0.0000e+00
      1.000    10.2026    30.2685   10.95152   99.16111    23.2274 2.0580e+03      1.803     0.4031 0.0000e+00
