* Sea-Bird SBE19plus Data File:
* FileName = C:\data\otf\2007\ctd-07055.hex
* Software Version 1.55
* Temperature SN =  5061
* Conductivity SN =  5061
* System UpLoad Time = Aug 15 2007 16:12:01
* ds
* SeacatPlus V 1.6a  SERIAL NO. 5061    15 Aug 2007  15:31:53
* vbatt = 10.9, vlith =  8.7, ioper =  61.6 ma, ipump =  57.5 ma, 
* iext01 =  95.2 ma
* iext23 =  58.1 ma
* 
* status = not logging
* number of scans to average = 1
* samples = 153039, free = 288466, casts = 154
* mode = profile, minimum cond freq = 3000, pump delay = 60 sec
* autorun = no, ignore magnetic switch = no
* battery type = alkaline, battery cutoff =  7.3 volts
* pressure sensor = strain gauge, range = 870.0
* SBE 38 = no, Gas Tension Device = no
* Ext Volt 0 = yes, Ext Volt 1 = yes, Ext Volt 2 = yes, Ext Volt 3 = yes
* echo commands = yes
* output format = raw HEX
* S>
* 
* SeacatPlus V 1.6a  SERIAL NO. 5061    15 Aug 2007  15:32:18
* temperature:  05-oct-06
*     TA0 = 1.254184e-03
*     TA1 = 2.596730e-04
*     TA2 = 5.165612e-07
*     TA3 = 1.318931e-07
*     TOFFSET = 0.000000e+00
* conductivity:  05-oct-06
*     G = -9.978144e-01
*     H = 1.555200e-01
*     I = -4.839108e-04
*     J = 6.121100e-05
*     CF0 = 2.539936e+03
*     CPCOR = -9.570000e-08
*     CTCOR = 3.250000e-06
*     CSLOPE = 1.000000e+00
* pressure S/N = 2362539, range = 870 psia:  24-aug-06
*     PA0 = 2.171091e-01
*     PA1 = 2.647085e-03
*     PA2 = 1.419397e-11
*     PTCA0 = 5.242437e+05
*     PTCA1 = 7.545345e+00
*     PTCA2 = -1.835354e-01
*     PTCB0 = 2.537125e+01
*     PTCB1 = -1.750000e-03
*     PTCB2 = 0.000000e+00
*     PTEMPA0 = -5.753989e+01
*     PTEMPA1 = 5.235813e+01
*     PTEMPA2 = -4.015521e-02
*     POFFSET = 0.000000e+00
* volt 0: offset = -4.682842e-02, slope = 1.249147e+00
* volt 1: offset = -4.695158e-02, slope = 1.248145e+00
* volt 2: offset = -4.685263e-02, slope = 1.248783e+00
* volt 3: offset = -4.690316e-02, slope = 1.249508e+00
*     EXTFREQSF = 1.000002e+00
* dh
* cast  55 11 Jul 2007 13:32:12 samples 44184 to 44488, avg = 4, stop = mag switch
* S> 
# nquan = 10
# nvalues = 152                         
# units = specified
# name 0 = depSM: Depth [salt water, m]
# name 1 = tv290C: Temperature [ITS-90, deg C]
# name 2 = sal00: Salinity [PSU]
# name 3 = sbeox0Mg/L: Oxygen, SBE 43 [mg/l]
# name 4 = sbeox0PS: Oxygen, SBE 43 [% saturation]
# name 5 = sigma-t00: Density [sigma-t, Kg/m^3 ]
# name 6 = par: PAR/Irradiance, Biospherical/Licor
# name 7 = prdM: Pressure, Strain Gauge [db]
# name 8 = flECO-AFL: Fluorescence, Wetlab ECO-AFL/FL [mg/m^3]
# name 9 = flag: flag
# span 0 =      1.000,     78.000       
# span 1 =     8.2789,     9.4107       
# span 2 =    31.1459,    31.4884       
# span 3 =    8.83054,   10.71856       
# span 4 =   92.02940,  103.64404       
# span 5 =    24.1348,    24.4765       
# span 6 = 1.5413e+00, 1.3541e+03       
# span 7 =      1.959,     77.801       
# span 8 =     0.3007,     0.8940       
# span 9 = 0.0000e+00, 0.0000e+00       
# interval = meters: 1                  
# start_time = Jul 11 2007 13:32:12
# bad_flag = -9.990e-29
# sensor 0 = Frequency 0  temperature, 5061, 05-Oct-06
# sensor 1 = Frequency 1  conductivity, 5061, 05-Oct-06, cpcor = -9.5700e-08
# sensor 2 = Pressure Number
# sensor 3 = Extrnl Volt  0  irradiance (PAR), primary, 4751, 08/10/06
# sensor 4 = Extrnl Volt  1  Oxygen, SBE, primary, 1081, 10/24/06
# sensor 5 = Extrnl Volt  2  WET Labs, ECO_AFL
# sensor 6 = Extrnl Volt  3  userpoly 0, 0627, 10/11/06
# datcnv_date = Oct 15 2007 14:49:45, 5.37e
# datcnv_in = I:\bob d\OTF_GEM\2007\ctd-07055.hex I:\Willette\OTF\CTD\5061.con
# datcnv_skipover = 0
# filter_date = Oct 15 2007 15:02:24, 5.37e
# filter_in = I:\Willette\OTF\CTD\2007\CTD Data\ctd-07055.cnv
# filter_low_pass_tc_A = 1.000
# filter_low_pass_tc_B = 0.150
# filter_low_pass_A_vars = prdM
# filter_low_pass_B_vars =
# loopedit_date = Oct 15 2007 15:06:47, 5.37e
# loopedit_in = I:\Willette\OTF\CTD\2007\CTD Data\ctd-07055.cnv
# loopedit_minVelocity = 0.250                                                                                            
# loopedit_surfaceSoak: minDepth = 5.0, maxDepth = 20, useDeckPress = 1                                                   
# loopedit_excl_bad_scans = yes
# alignctd_date = Oct 15 2007 15:14:15, 5.37e
# alignctd_in = I:\Willette\OTF\CTD\2007\CTD Data\ctd-07055.cnv
# alignctd_adv = tv290C 0.500, sbeox0Mg/L 4.000, sbeox0PS 4.000                                                                                                                                                                      
# binavg_date = Oct 15 2007 15:18:44, 5.37e
# binavg_in = I:\Willette\OTF\CTD\2007\CTD Data\ctd-07055.cnv
# binavg_bintype = meters
# binavg_binsize = 1
# binavg_excl_bad_scans = yes
# binavg_skipover = 0
# binavg_surface_bin = no, min = 0.000, max = 0.000, value = 0.000
# file_type = ascii
*END*
      4.000     8.5921    31.1909    8.83054   92.02940    24.1754 6.5019e+02      4.423     0.3055 0.0000e+00
      5.000     8.5784    31.3181    9.16701   95.50535    24.2953 5.4544e+02      5.355     0.3354 0.0000e+00
      6.000     8.4775    31.3675    9.46699   98.62355    24.3399 4.1654e+02      6.673     0.3354 0.0000e+00
      7.000     8.4318    31.3464    9.53211   99.29515    24.3359 3.5658e+02      7.805     0.3417 0.0000e+00
      8.000     8.4191    31.3453    9.55763   99.56047    24.3402 2.9728e+02      8.616     0.3804 0.0000e+00
      9.000     8.3669    31.4070    9.59051   99.90095    24.3914 2.2702e+02      9.510     0.4110 0.0000e+00
     10.000     8.3616    31.3428    9.61326  100.13701    24.3434 1.9519e+02     10.364     0.3916 0.0000e+00
     11.000     8.3535    31.4042    9.62713  100.27952    24.3974 1.5926e+02     11.178     0.4279 0.0000e+00
     12.000     8.3521    31.4025    9.64681  100.48458    24.3980 1.3283e+02     12.042     0.4618 0.0000e+00
     13.000     8.3365    31.4284    9.66600  100.68292    24.4195 1.0748e+02     13.043     0.4976 0.0000e+00
     14.000     8.2996    31.4005    9.68479  100.88220    24.3977 9.0331e+01     14.226     0.5451 0.0000e+00
     15.000     8.2992    31.3959    9.68699  100.90562    24.3980 7.6236e+01     14.939     0.5918 0.0000e+00
     16.000     8.2961    31.3997    9.69765  101.01597    24.4044 6.2619e+01     16.043     0.5285 0.0000e+00
     17.000     8.2955    31.4010    9.71045  101.14889    24.4060 5.2287e+01     17.084     0.5067 0.0000e+00
     18.000     8.2906    31.4027    9.71481  101.19579    24.4076 4.3002e+01     18.036     0.5196 0.0000e+00
     19.000     8.2896    31.4072    9.72004  101.25004    24.4116 3.6681e+01     19.176     0.5026 0.0000e+00
     20.000     8.2885    31.4086    9.72603  101.31079    24.4129 3.0956e+01     20.134     0.5024 0.0000e+00
     21.000     8.2867    31.4109    9.73465  101.40437    24.4149 2.5973e+01     21.251     0.5013 0.0000e+00
     22.000     8.2860    31.4136    9.74254  101.49149    24.4172 2.1977e+01     22.246     0.4999 0.0000e+00
     23.000     8.2846    31.4140    9.74610  101.52739    24.4177 1.8444e+01     23.351     0.5005 0.0000e+00
     24.000     8.2867    31.4166    9.75052  101.57109    24.4199 1.5868e+01     24.290     0.4920 0.0000e+00
     25.000     8.2837    31.4140    9.74712  101.54038    24.4177 1.3225e+01     25.470     0.4927 0.0000e+00
     26.000     8.2834    31.4213    9.74630  101.53079    24.4235 1.1426e+01     26.494     0.5011 0.0000e+00
     27.000     8.2826    31.4271    9.74548  101.52537    24.4284 9.7533e+00     27.360     0.5380 0.0000e+00
     28.000     8.2825    31.4294    9.75507  101.62821    24.4303 8.5206e+00     28.448     0.4834 0.0000e+00
     29.000     8.2834    31.4323    9.76014  101.68117    24.4326 7.4585e+00     29.066     0.4969 0.0000e+00
     30.000     8.2822    31.4313    9.76755  101.76117    24.4317 6.3523e+00     30.255     0.5333 0.0000e+00
     31.000     8.2818    31.4309    9.76682  101.75380    24.4315 5.5533e+00     31.215     0.5794 0.0000e+00
     32.000     8.2829    31.4326    9.76847  101.77574    24.4329 4.8715e+00     32.408     0.5184 0.0000e+00
     33.000 -9.990e-29 -9.990e-29 -9.990e-29 -9.990e-29 -9.990e-29 -9.990e-29 -9.990e-29 -9.990e-29 -9.990e-29
     34.000     8.2829    31.4410    9.76409  101.73212    24.4393 3.9853e+00     34.126     0.5034 0.0000e+00
     35.000     8.2822    31.4380    9.76460  101.73908    24.4369 3.5212e+00     35.460     0.4964 0.0000e+00
     36.000     8.2823    31.4384    9.75939  101.68341    24.4374 3.1927e+00     36.406     0.4894 0.0000e+00
     37.000     8.2837    31.4437    9.75442  101.63196    24.4415 2.9228e+00     37.477     0.5339 0.0000e+00
     38.000     8.2840    31.4441    9.75551  101.64299    24.4419 2.6939e+00     38.361     0.4892 0.0000e+00
     39.000     8.2822    31.4397    9.75910  101.67977    24.4382 2.4918e+00     39.314     0.5612 0.0000e+00
     40.000     8.2824    31.4485    9.75804  101.67109    24.4453 2.3361e+00     40.387     0.5159 0.0000e+00
     41.000     8.2823    31.4519    9.76042  101.69700    24.4480 2.2110e+00     41.265     0.4934 0.0000e+00
     42.000     8.2820    31.4548    9.76293  101.72419    24.4503 2.0927e+00     42.183     0.4982 0.0000e+00
     43.000     8.2808    31.4612    9.76073  101.69850    24.4553 1.9961e+00     43.482     0.5258 0.0000e+00
     44.000     8.2810    31.4596    9.76166  101.70724    24.4541 1.9266e+00     44.120     0.5395 0.0000e+00
     45.000     8.2801    31.4749    9.76319  101.72440    24.4663 1.8527e+00     45.492     0.5099 0.0000e+00
     46.000     8.2800    31.4736    9.76484  101.74112    24.4652 1.8057e+00     46.274     0.5194 0.0000e+00
     47.000     8.2798    31.4787    9.76516  101.74392    24.4693 1.7503e+00     47.562     0.5341 0.0000e+00
     48.000     8.2807    31.4795    9.76298  101.72193    24.4700 1.7162e+00     48.472     0.5242 0.0000e+00
     49.000     8.2802    31.4756    9.76710  101.76539    24.4669 1.6844e+00     49.625     0.5736 0.0000e+00
     50.000 -9.990e-29 -9.990e-29 -9.990e-29 -9.990e-29 -9.990e-29 -9.990e-29 -9.990e-29 -9.990e-29 -9.990e-29
     51.000     8.2806    31.4761    9.76722  101.76798    24.4672 1.6441e+00     51.175     0.5621 0.0000e+00
     52.000     8.2800    31.4772    9.76701  101.76932    24.4678 1.6223e+00     52.662     0.5939 0.0000e+00
     53.000     8.2807    31.4804    9.76516  101.74746    24.4706 1.6080e+00     53.436     0.5594 0.0000e+00
     54.000     8.2795    31.4788    9.76879  101.79144    24.4692 1.5952e+00     54.856     0.5648 0.0000e+00
     55.000     8.2797    31.4787    9.75947  101.69699    24.4694 1.5872e+00     55.673     0.5961 0.0000e+00
     56.000     8.2799    31.4792    9.75924  101.69407    24.4698 1.5792e+00     56.637     0.5630 0.0000e+00
     57.000     8.2801    31.4795    9.76412  101.74568    24.4699 1.5736e+00     57.926     0.5531 0.0000e+00
     58.000     8.2806    31.4794    9.76371  101.74158    24.4699 1.5690e+00     58.548     0.5494 0.0000e+00
     59.000     8.2805    31.4770    9.76734  101.77968    24.4679 1.5646e+00     59.687     0.5464 0.0000e+00
     60.000 -9.990e-29 -9.990e-29 -9.990e-29 -9.990e-29 -9.990e-29 -9.990e-29 -9.990e-29 -9.990e-29 -9.990e-29
     61.000     8.2805    31.4770    9.76728  101.77908    24.4679 1.5596e+00     61.048     0.5728 0.0000e+00
     62.000     8.2808    31.4780    9.76734  101.77999    24.4687 1.5559e+00     62.450     0.5430 0.0000e+00
     63.000     8.2813    31.4789    9.76964  101.80416    24.4694 1.5546e+00     63.471     0.5781 0.0000e+00
     64.000     8.2810    31.4798    9.77636  101.87475    24.4700 1.5525e+00     64.712     0.5383 0.0000e+00
     65.000     8.2813    31.4795    9.78574  101.97353    24.4697 1.5514e+00     65.902     0.5453 0.0000e+00
     66.000     8.2823    31.4793    9.78062  101.92021    24.4697 1.5503e+00     66.772     0.5679 0.0000e+00
     67.000     8.2825    31.4878    9.78223  101.93586    24.4762 1.5490e+00     67.772     0.5094 0.0000e+00
     68.000     8.2826    31.4869    9.78455  101.95979    24.4755 1.5488e+00     68.648     0.7255 0.0000e+00
     69.000     8.2824    31.4866    9.78777  101.99356    24.4751 1.5481e+00     69.806     0.7905 0.0000e+00
     70.000     8.2825    31.4874    9.79317  102.04979    24.4758 1.5479e+00     70.560     0.6942 0.0000e+00
     71.000     8.2827    31.4881    9.79481  102.06646    24.4764 1.5475e+00     71.566     0.6767 0.0000e+00
     72.000     8.2828    31.4883    9.79523  102.07074    24.4765 1.5473e+00     72.394     0.6846 0.0000e+00
     73.000     8.2828    31.4881    9.79515  102.07007    24.4763 1.5470e+00     73.323     0.6559 0.0000e+00
     74.000     8.2829    31.4878    9.79249  102.04236    24.4761 1.5469e+00     74.127     0.6449 0.0000e+00
     75.000     8.2830    31.4879    9.79101  102.02818    24.4761 1.5465e+00     74.943     0.6350 0.0000e+00
     76.000     8.2832    31.4879    9.79351  102.05531    24.4761 1.5465e+00     75.874     0.6067 0.0000e+00
     77.000     8.2832    31.4875    9.79126  102.03159    24.4758 1.5459e+00     76.399     0.5979 0.0000e+00
     78.000     8.2833    31.4882    9.79113  102.03032    24.4763 1.5413e+00     77.801     0.5992 0.0000e+00
     77.000     8.2839    31.4882    9.79310  102.05045    24.4762 1.5467e+00     77.351     0.5950 0.0000e+00
     76.000     8.2836    31.4877    9.79023  102.02096    24.4758 1.5466e+00     76.429     0.5629 0.0000e+00
     75.000     8.2838    31.4878    9.79243  102.04223    24.4760 1.5505e+00     75.513     0.5786 0.0000e+00
     74.000     8.2841    31.4878    9.78510  101.96275    24.4759 1.5487e+00     74.497     0.5722 0.0000e+00
     73.000     8.2843    31.4876    9.78002  101.90714    24.4758 1.5465e+00     73.551     0.5597 0.0000e+00
     72.000     8.2839    31.4877    9.78782  101.98945    24.4758 1.5467e+00     72.529     0.5677 0.0000e+00
     71.000     8.2832    31.4884    9.79186  102.03113    24.4764 1.5469e+00     71.611     0.5411 0.0000e+00
     70.000     8.2838    31.4879    9.79151  102.02933    24.4760 1.5471e+00     70.538     0.5472 0.0000e+00
     69.000     8.2836    31.4879    9.78955  102.00984    24.4760 1.5476e+00     69.622     0.5397 0.0000e+00
     68.000     8.2833    31.4879    9.78472  101.96070    24.4760 1.5480e+00     68.610     0.5843 0.0000e+00
     67.000     8.2829    31.4859    9.78169  101.92768    24.4745 1.5482e+00     67.531     0.5748 0.0000e+00
     66.000     8.2823    31.4834    9.78156  101.92268    24.4725 1.5492e+00     66.627     0.5911 0.0000e+00
     65.000     8.2827    31.4821    9.78508  101.95353    24.4717 1.5500e+00     65.496     0.5681 0.0000e+00
     64.000     8.2823    31.4827    9.79035  102.00864    24.4721 1.5513e+00     64.653     0.5892 0.0000e+00
     63.000     8.2826    31.4835    9.79908  102.09859    24.4727 1.5525e+00     63.536     0.6063 0.0000e+00
     62.000     8.2822    31.4845    9.79888  102.09644    24.4735 1.5542e+00     62.687     0.6009 0.0000e+00
     61.000     8.2825    31.4860    9.78975  102.00114    24.4747 1.5559e+00     61.552     0.6251 0.0000e+00
     60.000     8.2824    31.4880    9.78536  101.95375    24.4763 1.5584e+00     60.585     0.5715 0.0000e+00
     59.000     8.2825    31.4880    9.78948  101.99328    24.4763 1.5622e+00     59.564     0.5770 0.0000e+00
     58.000     8.2813    31.4861    9.79015  101.99930    24.4748 1.5662e+00     58.489     0.5495 0.0000e+00
     57.000     8.2808    31.4807    9.79550  102.05373    24.4707 1.5709e+00     57.418     0.5394 0.0000e+00
     56.000     8.2805    31.4793    9.79875  102.08800    24.4696 1.5769e+00     56.457     0.5319 0.0000e+00
     55.000     8.2801    31.4790    9.80208  102.12234    24.4696 1.5835e+00     55.577     0.5498 0.0000e+00
     54.000     8.2805    31.4784    9.79203  102.01827    24.4691 1.5927e+00     54.530     0.5573 0.0000e+00
     53.000     8.2802    31.4785    9.79725  102.07229    24.4691 1.6042e+00     53.598     0.5531 0.0000e+00
     52.000     8.2805    31.4776    9.80273  102.12940    24.4685 1.6181e+00     52.497     0.5519 0.0000e+00
     51.000     8.2804    31.4761    9.81041  102.21088    24.4673 1.6324e+00     51.387     0.5844 0.0000e+00
     50.000     8.2807    31.4682    9.80732  102.17724    24.4609 1.6513e+00     50.533     0.5845 0.0000e+00
     49.000     8.2802    31.4678    9.80057  102.10758    24.4607 1.6740e+00     49.511     0.5242 0.0000e+00
     48.000     8.2813    31.4672    9.79839  102.08511    24.4603 1.7036e+00     48.349     0.5780 0.0000e+00
     47.000     8.2817    31.4646    9.80063  102.10895    24.4582 1.7359e+00     47.361     0.5409 0.0000e+00
     46.000     8.2825    31.4609    9.79791  102.08125    24.4550 1.7730e+00     46.292     0.5752 0.0000e+00
     45.000     8.2815    31.4617    9.79562  102.05389    24.4557 1.8196e+00     45.415     0.5483 0.0000e+00
     44.000     8.2817    31.4627    9.79761  102.07318    24.4565 1.8783e+00     44.377     0.5718 0.0000e+00
     43.000     8.2811    31.4624    9.80480  102.14682    24.4563 1.9512e+00     43.301     0.5804 0.0000e+00
     42.000     8.2802    31.4654    9.80633  102.16109    24.4587 2.0334e+00     42.392     0.5656 0.0000e+00
     41.000     8.2811    31.4673    9.80469  102.14141    24.4604 2.1302e+00     41.283     0.5645 0.0000e+00
     40.000     8.2806    31.4659    9.80199  102.11323    24.4592 2.2461e+00     40.361     0.5779 0.0000e+00
     39.000     8.2804    31.4662    9.81370  102.23443    24.4593 2.3986e+00     39.427     0.6050 0.0000e+00
     38.000     8.2796    31.4686    9.81106  102.20481    24.4613 2.5972e+00     38.343     0.6140 0.0000e+00
     37.000     8.2789    31.4721    9.81186  102.21390    24.4642 2.8330e+00     37.434     0.5945 0.0000e+00
     36.000     8.2805    31.4735    9.82165  102.31301    24.4654 3.1110e+00     36.335     0.6793 0.0000e+00
     35.000     8.2823    31.4650    9.80964  102.19019    24.4586 3.4140e+00     35.324     0.6842 0.0000e+00
     34.000     8.2821    31.4584    9.82030  102.29950    24.4532 3.8129e+00     34.517     0.6959 0.0000e+00
     33.000     8.2833    31.4550    9.81642  102.25857    24.4505 4.3172e+00     33.415     0.6613 0.0000e+00
     32.000     8.2847    31.4495    9.81386  102.22947    24.4461 4.8799e+00     32.431     0.6537 0.0000e+00
     31.000     8.2851    31.4365    9.81995  102.29192    24.4355 5.5284e+00     31.181     0.6562 0.0000e+00
     30.000     8.2845    31.4375    9.82263  102.32097    24.4364 6.2565e+00     30.240     0.5828 0.0000e+00
     29.000     8.2835    31.4363    9.82555  102.35458    24.4354 7.2399e+00     29.286     0.5950 0.0000e+00
     28.000     8.2819    31.4388    9.82832  102.38706    24.4376 8.3900e+00     27.938     0.6781 0.0000e+00
     27.000     8.2824    31.4413    9.83113  102.41642    24.4396 9.7831e+00     27.222     0.6280 0.0000e+00
     26.000     8.2819    31.4406    9.82094  102.31180    24.4391 1.1358e+01     26.151     0.6422 0.0000e+00
     25.000     8.2820    31.4415    9.82059  102.30922    24.4399 1.3338e+01     25.070     0.6942 0.0000e+00
     24.000     8.2817    31.4421    9.81690  102.27084    24.4404 1.5632e+01     24.212     0.6901 0.0000e+00
     23.000     8.2845    31.4396    9.80662  102.16690    24.4384 1.8525e+01     23.179     0.6870 0.0000e+00
     22.000     8.2878    31.4298    9.80598  102.16659    24.4305 2.2012e+01     22.181     0.6808 0.0000e+00
     21.000     8.2919    31.4182    9.80714  102.20285    24.4209 2.6219e+01     21.137     0.8940 0.0000e+00
     20.000     8.2939    31.4077    9.80863  102.24711    24.4121 3.1000e+01     20.224     0.7736 0.0000e+00
     19.000     8.2959    31.4022    9.81222  102.32843    24.4074 3.6881e+01     19.194     0.7339 0.0000e+00
     18.000     8.2970    31.3987    9.82516  102.48854    24.4044 4.4088e+01     18.353     0.6129 0.0000e+00
     17.000     8.2996    31.3923    9.83553  102.65478    24.3992 5.2943e+01     16.775     0.6046 0.0000e+00
     16.000     8.2989    31.3933    9.83111  102.61659    24.3998 6.3259e+01     16.283     0.6184 0.0000e+00
     15.000     8.2991    31.3922    9.83108  102.67220    24.3989 7.5943e+01     15.375     0.6191 0.0000e+00
     14.000     8.3011    31.3909    9.82442  102.67378    24.3978 9.0998e+01     14.250     0.6500 0.0000e+00
     13.000     8.3064    31.3895    9.81741  102.69057    24.3964 1.1079e+02     13.218     0.6499 0.0000e+00
     12.000     8.3231    31.3870    9.81478  102.78776    24.3938 1.3131e+02     12.080     0.5774 0.0000e+00
     11.000     8.3413    31.3810    9.80940  103.01577    24.3873 1.5856e+02     11.158     0.5746 0.0000e+00
     10.000     8.3774    31.3669    9.77780  103.64404    24.3726 1.9351e+02      9.825     0.5237 0.0000e+00
      9.000     8.3838    31.3554    9.64809  102.17868    24.3606 2.3256e+02      9.056     0.5325 0.0000e+00
      8.000     8.3984    31.3457   10.09432  100.01212    24.3504 2.8636e+02      8.070     0.5018 0.0000e+00
      7.000     8.4333    31.3379   10.71856   97.10832    24.3422 3.4215e+02      7.027     0.4638 0.0000e+00
      6.000     8.4639    31.3259 -9.990e-29 -9.990e-29    24.3291 4.1836e+02      6.121     0.4501 0.0000e+00
      5.000     8.5046    31.3082 -9.990e-29 -9.990e-29    24.3106 5.0800e+02      5.187     0.4115 0.0000e+00
      4.000     8.5524    31.2869 -9.990e-29 -9.990e-29    24.2879 6.2639e+02      4.303     0.3835 0.0000e+00
      3.000     8.6585    31.2573 -9.990e-29 -9.990e-29    24.2575 6.7831e+02      3.368     0.4714 0.0000e+00
      2.000     8.8958    31.2307 -9.990e-29 -9.990e-29    24.2264 7.2330e+02      2.690     0.3780 0.0000e+00
      1.000     9.4107    31.1459 -9.990e-29 -9.990e-29    24.1348 1.3541e+03      1.959     0.3007 0.0000e+00
