* Sea-Bird SBE19plus Data File:
* FileName = C:\data\otf\2007\ctd-07073.hex
* Software Version 1.55
* Temperature SN =  5061
* Conductivity SN =  5061
* System UpLoad Time = Aug 15 2007 16:17:43
* ds
* SeacatPlus V 1.6a  SERIAL NO. 5061    15 Aug 2007  15:31:53
* vbatt = 10.9, vlith =  8.7, ioper =  61.6 ma, ipump =  57.5 ma, 
* iext01 =  95.2 ma
* iext23 =  58.1 ma
* 
* status = not logging
* number of scans to average = 1
* samples = 153039, free = 288466, casts = 154
* mode = profile, minimum cond freq = 3000, pump delay = 60 sec
* autorun = no, ignore magnetic switch = no
* battery type = alkaline, battery cutoff =  7.3 volts
* pressure sensor = strain gauge, range = 870.0
* SBE 38 = no, Gas Tension Device = no
* Ext Volt 0 = yes, Ext Volt 1 = yes, Ext Volt 2 = yes, Ext Volt 3 = yes
* echo commands = yes
* output format = raw HEX
* S>
* 
* SeacatPlus V 1.6a  SERIAL NO. 5061    15 Aug 2007  15:32:18
* temperature:  05-oct-06
*     TA0 = 1.254184e-03
*     TA1 = 2.596730e-04
*     TA2 = 5.165612e-07
*     TA3 = 1.318931e-07
*     TOFFSET = 0.000000e+00
* conductivity:  05-oct-06
*     G = -9.978144e-01
*     H = 1.555200e-01
*     I = -4.839108e-04
*     J = 6.121100e-05
*     CF0 = 2.539936e+03
*     CPCOR = -9.570000e-08
*     CTCOR = 3.250000e-06
*     CSLOPE = 1.000000e+00
* pressure S/N = 2362539, range = 870 psia:  24-aug-06
*     PA0 = 2.171091e-01
*     PA1 = 2.647085e-03
*     PA2 = 1.419397e-11
*     PTCA0 = 5.242437e+05
*     PTCA1 = 7.545345e+00
*     PTCA2 = -1.835354e-01
*     PTCB0 = 2.537125e+01
*     PTCB1 = -1.750000e-03
*     PTCB2 = 0.000000e+00
*     PTEMPA0 = -5.753989e+01
*     PTEMPA1 = 5.235813e+01
*     PTEMPA2 = -4.015521e-02
*     POFFSET = 0.000000e+00
* volt 0: offset = -4.682842e-02, slope = 1.249147e+00
* volt 1: offset = -4.695158e-02, slope = 1.248145e+00
* volt 2: offset = -4.685263e-02, slope = 1.248783e+00
* volt 3: offset = -4.690316e-02, slope = 1.249508e+00
*     EXTFREQSF = 1.000002e+00
* dh
* cast  73 14 Jul 2007 09:34:27 samples 49286 to 49584, avg = 4, stop = mag switch
* S> 
# nquan = 10
# nvalues = 148                         
# units = specified
# name 0 = depSM: Depth [salt water, m]
# name 1 = tv290C: Temperature [ITS-90, deg C]
# name 2 = sal00: Salinity [PSU]
# name 3 = sbeox0Mg/L: Oxygen, SBE 43 [mg/l]
# name 4 = sbeox0PS: Oxygen, SBE 43 [% saturation]
# name 5 = sigma-t00: Density [sigma-t, Kg/m^3 ]
# name 6 = par: PAR/Irradiance, Biospherical/Licor
# name 7 = prdM: Pressure, Strain Gauge [db]
# name 8 = flECO-AFL: Fluorescence, Wetlab ECO-AFL/FL [mg/m^3]
# name 9 = flag: flag
# span 0 =      1.000,     76.000       
# span 1 =     8.2689,     9.4899       
# span 2 =    30.3596,    31.7258       
# span 3 =    9.09178,    9.87720       
# span 4 =   96.11564,  103.13922       
# span 5 =    23.4188,    24.6648       
# span 6 = 1.5487e+00, 2.0591e+02       
# span 7 =      1.909,     75.157       
# span 8 =     0.4847,     1.2703       
# span 9 = 0.0000e+00, 0.0000e+00       
# interval = meters: 1                  
# start_time = Jul 14 2007 09:34:27
# bad_flag = -9.990e-29
# sensor 0 = Frequency 0  temperature, 5061, 05-Oct-06
# sensor 1 = Frequency 1  conductivity, 5061, 05-Oct-06, cpcor = -9.5700e-08
# sensor 2 = Pressure Number
# sensor 3 = Extrnl Volt  0  irradiance (PAR), primary, 4751, 08/10/06
# sensor 4 = Extrnl Volt  1  Oxygen, SBE, primary, 1081, 10/24/06
# sensor 5 = Extrnl Volt  2  WET Labs, ECO_AFL
# sensor 6 = Extrnl Volt  3  userpoly 0, 0627, 10/11/06
# datcnv_date = Oct 15 2007 14:49:45, 5.37e
# datcnv_in = I:\bob d\OTF_GEM\2007\ctd-07073.hex I:\Willette\OTF\CTD\5061.con
# datcnv_skipover = 0
# filter_date = Oct 15 2007 15:02:26, 5.37e
# filter_in = I:\Willette\OTF\CTD\2007\CTD Data\ctd-07073.cnv
# filter_low_pass_tc_A = 1.000
# filter_low_pass_tc_B = 0.150
# filter_low_pass_A_vars = prdM
# filter_low_pass_B_vars =
# loopedit_date = Oct 15 2007 15:06:48, 5.37e
# loopedit_in = I:\Willette\OTF\CTD\2007\CTD Data\ctd-07073.cnv
# loopedit_minVelocity = 0.250                                                                                            
# loopedit_surfaceSoak: minDepth = 5.0, maxDepth = 20, useDeckPress = 1                                                   
# loopedit_excl_bad_scans = yes
# alignctd_date = Oct 15 2007 15:14:16, 5.37e
# alignctd_in = I:\Willette\OTF\CTD\2007\CTD Data\ctd-07073.cnv
# alignctd_adv = tv290C 0.500, sbeox0Mg/L 4.000, sbeox0PS 4.000                                                                                                                                                                      
# binavg_date = Oct 15 2007 15:18:44, 5.37e
# binavg_in = I:\Willette\OTF\CTD\2007\CTD Data\ctd-07073.cnv
# binavg_bintype = meters
# binavg_binsize = 1
# binavg_excl_bad_scans = yes
# binavg_skipover = 0
# binavg_surface_bin = no, min = 0.000, max = 0.000, value = 0.000
# file_type = ascii
*END*
      4.000     9.3682    30.3953    9.09178   96.11564    23.4470 6.0496e+01      4.644     0.6536 0.0000e+00
      5.000     9.3222    30.4413    9.11614   96.35086    23.4902 4.5873e+01      5.510     0.5981 0.0000e+00
      6.000     9.2875    30.5008    9.12941   96.46669    23.5455 3.4229e+01      6.403     0.5457 0.0000e+00
      7.000     9.2594    30.5433    9.12676   96.39727    23.5843 2.5651e+01      7.443     0.5189 0.0000e+00
      8.000     9.2439    30.5816    9.14297   96.53755    23.6196 1.9243e+01      8.462     0.5871 0.0000e+00
      9.000     9.2208    30.6062    9.19357   97.00585    23.6416 1.4451e+01      9.547     0.5583 0.0000e+00
     10.000     9.2066    30.6289    9.17539   96.71807    23.6620 1.1218e+01     10.631     0.5739 0.0000e+00
     11.000     9.1921    30.6476    9.21168   97.00319    23.6790 8.8665e+00     11.682     0.5680 0.0000e+00
     12.000     9.1824    30.6632    9.22772   97.11763    23.6934 7.0883e+00     12.630     0.5721 0.0000e+00
     13.000     9.1618    30.6776    9.24091   97.15584    23.7065 5.7557e+00     13.575     0.5748 0.0000e+00
     14.000     9.1407    30.6886    9.26221   97.27399    23.7164 4.7537e+00     14.510     0.5972 0.0000e+00
     15.000     9.1273    30.7178    9.32521   97.87984    23.7419 3.9962e+00     15.417     0.5643 0.0000e+00
     16.000     9.1157    30.7433    9.40696   98.68694    23.7650 3.4245e+00     16.352     0.5331 0.0000e+00
     17.000     9.1058    30.7597    9.47721   99.38577    23.7801 2.9966e+00     17.308     0.5207 0.0000e+00
     18.000     9.0942    30.7740    9.52455   99.85461    23.7931 2.6682e+00     18.302     0.5210 0.0000e+00
     19.000 -9.990e-29 -9.990e-29 -9.990e-29 -9.990e-29 -9.990e-29 -9.990e-29 -9.990e-29 -9.990e-29 -9.990e-29
     20.000     9.0716    30.7915    9.56718  100.27364    23.8091 2.3106e+00     19.758     0.5171 0.0000e+00
     21.000     9.0471    30.8110    9.61160  100.61831    23.8272 2.0611e+00     21.174     0.5182 0.0000e+00
     22.000     9.0388    30.8273    9.63647  100.93028    23.8428 1.9409e+00     22.304     0.5247 0.0000e+00
     23.000     8.9978    30.8373    9.66016  101.08874    23.8533 1.8581e+00     23.265     0.5044 0.0000e+00
     24.000     8.9521    30.8438    9.67519  101.22826    23.8592 1.7905e+00     24.184     0.5076 0.0000e+00
     25.000     8.9124    30.8844    9.68608  101.34525    23.8973 1.7333e+00     25.301     0.4976 0.0000e+00
     26.000     8.8464    30.9235    9.70191  101.49103    23.9355 1.6953e+00     26.339     0.4920 0.0000e+00
     27.000     8.8263    30.9687    9.71828  101.62349    23.9758 1.6618e+00     27.281     0.4847 0.0000e+00
     28.000     8.7174    31.0404    9.73221  101.77523    24.0423 1.6360e+00     28.425     0.5153 0.0000e+00
     29.000     8.6581    31.0790    9.73998  101.85334    24.0754 1.6198e+00     29.353     0.5070 0.0000e+00
     30.000     8.6400    31.1978    9.74875  101.91329    24.1809 1.6057e+00     30.215     0.5958 0.0000e+00
     31.000     8.6008    31.2773    9.75703  101.98870    24.2532 1.5951e+00     31.191     0.6909 0.0000e+00
     32.000     8.5781    31.3239    9.76578  102.07061    24.2948 1.5867e+00     32.252     0.6764 0.0000e+00
     33.000     8.5638    31.3718    9.77013  102.10877    24.3375 1.5803e+00     33.124     0.7576 0.0000e+00
     34.000     8.5465    31.4036    9.77504  102.15514    24.3659 1.5749e+00     34.048     0.7864 0.0000e+00
     35.000     8.5010    31.4259    9.78235  102.18710    24.3862 1.5702e+00     35.098     0.7986 0.0000e+00
     36.000     8.4912    31.4636    9.78707  102.21408    24.4186 1.5669e+00     36.099     0.7929 0.0000e+00
     37.000     8.4641    31.5168    9.79131  102.26652    24.4669 1.5643e+00     37.093     0.8302 0.0000e+00
     38.000     8.4368    31.5281    9.80013  102.36712    24.4769 1.5619e+00     38.231     0.8644 0.0000e+00
     39.000     8.4320    31.5741    9.80505  102.40068    24.5185 1.5599e+00     39.260     0.8769 0.0000e+00
     40.000     8.4222    31.5913    9.80795  102.46857    24.5349 1.5583e+00     40.229     0.9381 0.0000e+00
     41.000     8.4003    31.5953    9.80998  102.49411    24.5385 1.5572e+00     41.253     0.9635 0.0000e+00
     42.000     8.4006    31.6067    9.82549  102.63534    24.5490 1.5560e+00     42.235     0.9722 0.0000e+00
     43.000     8.3984    31.6264    9.81762  102.54170    24.5678 1.5550e+00     43.188     1.0281 0.0000e+00
     44.000     8.3758    31.6243    9.82879  102.64068    24.5660 1.5541e+00     44.191     1.0178 0.0000e+00
     45.000     8.3702    31.6270    9.81851  102.50711    24.5683 1.5536e+00     45.220     0.9071 0.0000e+00
     46.000     8.3652    31.6471    9.81975  102.49768    24.5873 1.5529e+00     46.220     0.9355 0.0000e+00
     47.000     8.3617    31.6527    9.82991  102.60897    24.5927 1.5526e+00     47.231     0.9669 0.0000e+00
     48.000     8.3312    31.6580    9.83592  102.68700    24.5977 1.5524e+00     48.253     0.9974 0.0000e+00
     49.000     8.3228    31.6583    9.83741  102.70972    24.5983 1.5519e+00     49.255     0.9518 0.0000e+00
     50.000     8.3329    31.6848    9.84146  102.74821    24.6241 1.5518e+00     50.350     1.0079 0.0000e+00
     51.000     8.3254    31.6825    9.84554  102.79010    24.6217 1.5516e+00     51.346     1.0079 0.0000e+00
     52.000     8.3438    31.6784    9.84095  102.73755    24.6179 1.5511e+00     52.343     1.0416 0.0000e+00
     53.000     8.3475    31.6914    9.84563  102.77033    24.6302 1.5513e+00     53.349     1.0752 0.0000e+00
     54.000     8.3330    31.6710    9.84872  102.78498    24.6104 1.5509e+00     54.347     1.0387 0.0000e+00
     55.000     8.3225    31.6786    9.84774  102.76087    24.6177 1.5507e+00     55.393     1.0718 0.0000e+00
     56.000     8.3042    31.6858    9.85070  102.79701    24.6249 1.5507e+00     56.499     1.0394 0.0000e+00
     57.000     8.2951    31.6937    9.85574  102.86481    24.6329 1.5505e+00     57.502     1.0097 0.0000e+00
     58.000     8.2986    31.7122    9.84851  102.78595    24.6510 1.5501e+00     58.668     0.9583 0.0000e+00
     59.000     8.3070    31.7079    9.86105  102.88897    24.6467 1.5504e+00     59.541     1.0475 0.0000e+00
     60.000     8.3075    31.7024    9.86658  102.94102    24.6412 1.5501e+00     60.480     1.0761 0.0000e+00
     61.000     8.3058    31.6983    9.85935  102.86382    24.6372 1.5502e+00     61.501     0.9986 0.0000e+00
     62.000     8.3053    31.6993    9.86746  102.94794    24.6383 1.5503e+00     62.365     1.0998 0.0000e+00
     63.000     8.2983    31.6999    9.86674  102.94207    24.6388 1.5500e+00     63.379     1.0265 0.0000e+00
     64.000     8.2856    31.7013    9.87237  103.00296    24.6404 1.5499e+00     64.450     0.9801 0.0000e+00
     65.000     8.2802    31.7096    9.86931  102.97204    24.6487 1.5500e+00     65.329     1.0287 0.0000e+00
     66.000     8.2815    31.7170    9.87487  103.03014    24.6559 1.5500e+00     66.427     1.0781 0.0000e+00
     67.000     8.2898    31.7183    9.87720  103.05108    24.6570 1.5495e+00     67.307     1.0724 0.0000e+00
     68.000     8.2809    31.7139    9.86878  102.95764    24.6526 1.5500e+00     68.515     1.0175 0.0000e+00
     69.000     8.2699    31.7141    9.87048  102.97709    24.6534 1.5497e+00     69.417     1.0852 0.0000e+00
     70.000     8.2695    31.7251    9.87568  103.04463    24.6641 1.5498e+00     70.568     1.1701 0.0000e+00
     71.000     8.2695    31.7244    9.87224  103.00570    24.6634 1.5494e+00     71.581     1.1236 0.0000e+00
     72.000     8.2710    31.7243    9.87136  103.00044    24.6634 1.5495e+00     72.479     1.1393 0.0000e+00
     73.000     8.2722    31.7235    9.86404  102.93199    24.6625 1.5495e+00     73.294     1.0995 0.0000e+00
     74.000     8.2716    31.7232    9.87234  103.02376    24.6622 1.5496e+00     74.021     1.1154 0.0000e+00
     75.000     8.2689    31.7234    9.86892  102.99427    24.6623 1.5495e+00     74.634     1.0910 0.0000e+00
     76.000     8.2728    31.7258    9.87403  103.03969    24.6648 1.5491e+00     75.157     1.1412 0.0000e+00
     75.000     8.2733    31.7229    9.87352  103.05149    24.6617 1.5492e+00     74.538     1.1803 0.0000e+00
     74.000     8.2751    31.7220    9.87118  103.03896    24.6610 1.5494e+00     73.585     1.2437 0.0000e+00
     73.000     8.2784    31.7235    9.87074  103.04444    24.6622 1.5491e+00     72.915     1.2309 0.0000e+00
     72.000     8.2814    31.7212    9.86788  103.03796    24.6599 1.5491e+00     72.185     1.0771 0.0000e+00
     71.000     8.2820    31.7197    9.86643  103.02873    24.6583 1.5491e+00     71.339     1.2533 0.0000e+00
     70.000     8.2863    31.7187    9.86052  102.96549    24.6573 1.5492e+00     70.482     1.2377 0.0000e+00
     69.000     8.2897    31.7173    9.85918  102.97785    24.6559 1.5491e+00     69.591     1.2319 0.0000e+00
     68.000     8.2806    31.7131    9.86273  103.00751    24.6518 1.5490e+00     68.646     1.2217 0.0000e+00
     67.000     8.2750    31.7145    9.86050  102.97849    24.6536 1.5494e+00     67.689     1.2063 0.0000e+00
     66.000     8.2836    31.7207    9.85521  102.91087    24.6597 1.5488e+00     66.784     1.1380 0.0000e+00
     65.000     8.2913    31.7194    9.85884  102.95992    24.6582 1.5489e+00     65.784     1.0642 0.0000e+00
     64.000     8.2937    31.7115    9.86532  103.03342    24.6505 1.5489e+00     64.835     1.1121 0.0000e+00
     63.000     8.3009    31.7081    9.85827  102.96411    24.6473 1.5489e+00     63.805     1.1650 0.0000e+00
     62.000     8.3134    31.7048    9.86171  102.99922    24.6438 1.5491e+00     62.882     1.1218 0.0000e+00
     61.000     8.3193    31.6967    9.86125  103.01715    24.6359 1.5489e+00     61.800     1.1394 0.0000e+00
     60.000     8.3241    31.6897    9.86941  103.13922    24.6292 1.5487e+00     60.803     1.1192 0.0000e+00
     59.000     8.3271    31.6861    9.86185  103.04578    24.6255 1.5492e+00     59.716     1.1492 0.0000e+00
     58.000     8.3205    31.6837    9.85031  102.95248    24.6231 1.5489e+00     58.707     1.2703 0.0000e+00
     57.000     8.3229    31.6890    9.85206  102.94600    24.6283 1.5492e+00     57.688     1.2166 0.0000e+00
     56.000     8.3271    31.6876    9.84964  102.92961    24.6268 1.5490e+00     56.720     1.0981 0.0000e+00
     55.000     8.3289    31.6840    9.84812  102.94403    24.6234 1.5489e+00     55.734     1.1086 0.0000e+00
     54.000     8.3456    31.6819    9.85309  103.02645    24.6214 1.5491e+00     54.671     1.1105 0.0000e+00
     53.000     8.3578    31.6625    9.84842  103.05390    24.6028 1.5492e+00     53.627     1.1337 0.0000e+00
     52.000     8.3636    31.6602    9.83872  102.91453    24.6004 1.5491e+00     52.526     1.1443 0.0000e+00
     51.000     8.3559    31.6517    9.83914  102.89602    24.5924 1.5493e+00     51.454     1.0878 0.0000e+00
     50.000     8.3705    31.6584    9.83663  102.89984    24.5988 1.5495e+00     50.344     1.0662 0.0000e+00
     49.000     8.3925    31.6427    9.83472  102.92234    24.5841 1.5495e+00     49.086     1.1530 0.0000e+00
     48.000     8.4311    31.6205    9.82909  102.90957    24.5632 1.5495e+00     47.960     1.0828 0.0000e+00
     47.000     8.4229    31.5889    9.82476  102.88397    24.5339 1.5501e+00     46.970     1.0813 0.0000e+00
     46.000     8.4189    31.5861    9.82122  102.85183    24.5310 1.5504e+00     46.075     1.0077 0.0000e+00
     45.000     8.4077    31.5992    9.81894  102.85787    24.5435 1.5507e+00     45.174     1.0305 0.0000e+00
     44.000     8.3973    31.6002    9.82050  102.91199    24.5441 1.5510e+00     44.363     1.0501 0.0000e+00
     43.000     8.4136    31.6193    9.81113  102.98412    24.5616 1.5514e+00     43.443     1.0772 0.0000e+00
     42.000     8.4244    31.6135    9.78748  102.82931    24.5566 1.5521e+00     42.508     1.0615 0.0000e+00
     41.000     8.4289    31.5988    9.75571  102.52681    24.5427 1.5528e+00     41.552     1.1185 0.0000e+00
     40.000     8.4494    31.5997    9.73828  102.37552    24.5436 1.5537e+00     40.554     1.0685 0.0000e+00
     39.000     8.4727    31.5687    9.71549  102.14971    24.5154 1.5548e+00     39.476     1.0056 0.0000e+00
     38.000     8.4912    31.5402    9.71449  102.21937    24.4893 1.5565e+00     38.270     1.1432 0.0000e+00
     37.000     8.4947    31.5228    9.70465  102.18359    24.4734 1.5586e+00     37.206     1.0918 0.0000e+00
     36.000     8.5179    31.5234    9.70054  102.20873    24.4742 1.5607e+00     36.241     1.0472 0.0000e+00
     35.000     8.5929    31.4894    9.68707  102.06852    24.4442 1.5637e+00     35.304     0.9561 0.0000e+00
     34.000     8.6969    31.4234    9.67735  102.00429    24.3871 1.5672e+00     34.419     0.9562 0.0000e+00
     33.000     8.7437    31.2379    9.66631  101.92678    24.2239 1.5706e+00     33.508     0.8117 0.0000e+00
     32.000     8.7587    31.1669    9.66525  101.88897    24.1581 1.5784e+00     32.618     0.7590 0.0000e+00
     31.000     8.7754    31.1416    9.66349  101.88967    24.1355 1.5869e+00     31.675     0.7151 0.0000e+00
     30.000     8.7899    31.1161    9.66124  101.90861    24.1122 1.5979e+00     30.764     0.6967 0.0000e+00
     29.000     8.8458    31.0853    9.65467  101.86165    24.0850 1.6110e+00     29.792     0.7075 0.0000e+00
     28.000     8.9057    31.0038    9.64140  101.76575    24.0111 1.6294e+00     28.696     0.7378 0.0000e+00
     27.000     8.9522    30.9423    9.63165  101.67986    23.9541 1.6528e+00     27.595     0.6745 0.0000e+00
     26.000     8.9690    30.9052    9.62568  101.63327    23.9195 1.6853e+00     26.515     0.6441 0.0000e+00
     25.000     9.0283    30.8515    9.62785  101.65191    23.8694 1.7317e+00     25.340     0.6329 0.0000e+00
     24.000     9.0544    30.8177    9.62114  101.61232    23.8373 1.7985e+00     24.197     0.6460 0.0000e+00
     23.000     9.0456    30.8223    9.61832  101.62556    23.8414 1.8844e+00     23.080     0.6367 0.0000e+00
     22.000     9.0654    30.8123    9.61272  101.59091    23.8320 1.9895e+00     22.041     0.6546 0.0000e+00
     21.000     9.0732    30.7983    9.60879  101.57663    23.8187 2.1227e+00     21.012     0.6652 0.0000e+00
     20.000     9.0916    30.7963    9.60902  101.60215    23.8171 2.2950e+00     20.020     0.6383 0.0000e+00
     19.000     9.1041    30.7763    9.60878  101.62735    23.7982 2.5047e+00     19.080     0.6666 0.0000e+00
     18.000     9.1014    30.7638    9.60071  101.57149    23.7865 2.7840e+00     18.008     0.6909 0.0000e+00
     17.000     9.1218    30.7640    9.59536  101.53215    23.7869 3.1440e+00     17.063     0.6637 0.0000e+00
     16.000     9.1309    30.7456    9.58654  101.45940    23.7699 3.6115e+00     15.989     0.6779 0.0000e+00
     15.000     9.1438    30.7324    9.57719  101.38896    23.7580 4.2151e+00     14.927     0.6969 0.0000e+00
     14.000     9.1535    30.7183    9.57880  101.45017    23.7453 5.0019e+00     13.909     0.7319 0.0000e+00
     13.000     9.1746    30.6988    9.57999  101.50627    23.7281 6.1327e+00     12.939     0.7180 0.0000e+00
     12.000     9.1875    30.6753    9.57366  101.48991    23.7070 7.5258e+00     11.914     0.7509 0.0000e+00
     11.000     9.1942    30.6624    9.56687  101.48574    23.6956 9.3968e+00     11.058     0.7344 0.0000e+00
     10.000     9.2015    30.6502    9.56356  101.57176    23.6845 1.1962e+01      9.996     0.7446 0.0000e+00
      9.000     9.2155    30.6411    9.54310  101.42759    23.6764 1.5520e+01      9.028     0.7417 0.0000e+00
      8.000     9.2287    30.6226    9.42282  100.09822    23.6600 2.0438e+01      8.087     0.7501 0.0000e+00
      7.000     9.2527    30.6044    9.39718   99.46856    23.6436 2.7104e+01      7.069     0.7587 0.0000e+00
      6.000     9.2782    30.5784 -9.990e-29 -9.990e-29    23.6204 3.5908e+01      6.171     0.7708 0.0000e+00
      5.000     9.3029    30.5371 -9.990e-29 -9.990e-29    23.5832 4.8043e+01      5.131     0.7917 0.0000e+00
      4.000     9.3339    30.5121 -9.990e-29 -9.990e-29    23.5607 6.5015e+01      4.302     0.7785 0.0000e+00
      3.000     9.3929    30.4734 -9.990e-29 -9.990e-29    23.5253 8.7355e+01      3.377     0.7949 0.0000e+00
      2.000     9.4486    30.4228 -9.990e-29 -9.990e-29    23.4784 1.1427e+02      2.633     0.8530 0.0000e+00
      1.000     9.4899    30.3596 -9.990e-29 -9.990e-29    23.4188 2.0591e+02      1.909     0.8380 0.0000e+00
