* Sea-Bird SBE19plus Data File:
* FileName = C:\data\otf\2007\ctd-07067.hex
* Software Version 1.55
* Temperature SN =  5061
* Conductivity SN =  5061
* System UpLoad Time = Aug 15 2007 16:15:48
* ds
* SeacatPlus V 1.6a  SERIAL NO. 5061    15 Aug 2007  15:31:53
* vbatt = 10.9, vlith =  8.7, ioper =  61.6 ma, ipump =  57.5 ma, 
* iext01 =  95.2 ma
* iext23 =  58.1 ma
* 
* status = not logging
* number of scans to average = 1
* samples = 153039, free = 288466, casts = 154
* mode = profile, minimum cond freq = 3000, pump delay = 60 sec
* autorun = no, ignore magnetic switch = no
* battery type = alkaline, battery cutoff =  7.3 volts
* pressure sensor = strain gauge, range = 870.0
* SBE 38 = no, Gas Tension Device = no
* Ext Volt 0 = yes, Ext Volt 1 = yes, Ext Volt 2 = yes, Ext Volt 3 = yes
* echo commands = yes
* output format = raw HEX
* S>
* 
* SeacatPlus V 1.6a  SERIAL NO. 5061    15 Aug 2007  15:32:18
* temperature:  05-oct-06
*     TA0 = 1.254184e-03
*     TA1 = 2.596730e-04
*     TA2 = 5.165612e-07
*     TA3 = 1.318931e-07
*     TOFFSET = 0.000000e+00
* conductivity:  05-oct-06
*     G = -9.978144e-01
*     H = 1.555200e-01
*     I = -4.839108e-04
*     J = 6.121100e-05
*     CF0 = 2.539936e+03
*     CPCOR = -9.570000e-08
*     CTCOR = 3.250000e-06
*     CSLOPE = 1.000000e+00
* pressure S/N = 2362539, range = 870 psia:  24-aug-06
*     PA0 = 2.171091e-01
*     PA1 = 2.647085e-03
*     PA2 = 1.419397e-11
*     PTCA0 = 5.242437e+05
*     PTCA1 = 7.545345e+00
*     PTCA2 = -1.835354e-01
*     PTCB0 = 2.537125e+01
*     PTCB1 = -1.750000e-03
*     PTCB2 = 0.000000e+00
*     PTEMPA0 = -5.753989e+01
*     PTEMPA1 = 5.235813e+01
*     PTEMPA2 = -4.015521e-02
*     POFFSET = 0.000000e+00
* volt 0: offset = -4.682842e-02, slope = 1.249147e+00
* volt 1: offset = -4.695158e-02, slope = 1.248145e+00
* volt 2: offset = -4.685263e-02, slope = 1.248783e+00
* volt 3: offset = -4.690316e-02, slope = 1.249508e+00
*     EXTFREQSF = 1.000002e+00
* dh
* cast  67 13 Jul 2007 13:18:25 samples 47540 to 47844, avg = 4, stop = mag switch
* S> 
# nquan = 10
# nvalues = 152                         
# units = specified
# name 0 = depSM: Depth [salt water, m]
# name 1 = tv290C: Temperature [ITS-90, deg C]
# name 2 = sal00: Salinity [PSU]
# name 3 = sbeox0Mg/L: Oxygen, SBE 43 [mg/l]
# name 4 = sbeox0PS: Oxygen, SBE 43 [% saturation]
# name 5 = sigma-t00: Density [sigma-t, Kg/m^3 ]
# name 6 = par: PAR/Irradiance, Biospherical/Licor
# name 7 = prdM: Pressure, Strain Gauge [db]
# name 8 = flECO-AFL: Fluorescence, Wetlab ECO-AFL/FL [mg/m^3]
# name 9 = flag: flag
# span 0 =      1.000,     78.000       
# span 1 =     8.5571,     9.2378       
# span 2 =    30.7567,    31.1521       
# span 3 =    8.90783,   11.44961       
# span 4 =   93.97567,  101.79544       
# span 5 =    23.7810,    24.1729       
# span 6 = 1.5458e+00, 1.0933e+03       
# span 7 =      1.731,     77.594       
# span 8 =     0.2305,     0.7554       
# span 9 = 0.0000e+00, 0.0000e+00       
# interval = meters: 1                  
# start_time = Jul 13 2007 13:18:25
# bad_flag = -9.990e-29
# sensor 0 = Frequency 0  temperature, 5061, 05-Oct-06
# sensor 1 = Frequency 1  conductivity, 5061, 05-Oct-06, cpcor = -9.5700e-08
# sensor 2 = Pressure Number
# sensor 3 = Extrnl Volt  0  irradiance (PAR), primary, 4751, 08/10/06
# sensor 4 = Extrnl Volt  1  Oxygen, SBE, primary, 1081, 10/24/06
# sensor 5 = Extrnl Volt  2  WET Labs, ECO_AFL
# sensor 6 = Extrnl Volt  3  userpoly 0, 0627, 10/11/06
# datcnv_date = Oct 15 2007 14:49:45, 5.37e
# datcnv_in = I:\bob d\OTF_GEM\2007\ctd-07067.hex I:\Willette\OTF\CTD\5061.con
# datcnv_skipover = 0
# filter_date = Oct 15 2007 15:02:25, 5.37e
# filter_in = I:\Willette\OTF\CTD\2007\CTD Data\ctd-07067.cnv
# filter_low_pass_tc_A = 1.000
# filter_low_pass_tc_B = 0.150
# filter_low_pass_A_vars = prdM
# filter_low_pass_B_vars =
# loopedit_date = Oct 15 2007 15:06:47, 5.37e
# loopedit_in = I:\Willette\OTF\CTD\2007\CTD Data\ctd-07067.cnv
# loopedit_minVelocity = 0.250                                                                                            
# loopedit_surfaceSoak: minDepth = 5.0, maxDepth = 20, useDeckPress = 1                                                   
# loopedit_excl_bad_scans = yes
# alignctd_date = Oct 15 2007 15:14:15, 5.37e
# alignctd_in = I:\Willette\OTF\CTD\2007\CTD Data\ctd-07067.cnv
# alignctd_adv = tv290C 0.500, sbeox0Mg/L 4.000, sbeox0PS 4.000                                                                                                                                                                      
# binavg_date = Oct 15 2007 15:18:44, 5.37e
# binavg_in = I:\Willette\OTF\CTD\2007\CTD Data\ctd-07067.cnv
# binavg_bintype = meters
# binavg_binsize = 1
# binavg_excl_bad_scans = yes
# binavg_skipover = 0
# binavg_surface_bin = no, min = 0.000, max = 0.000, value = 0.000
# file_type = ascii
*END*
      4.000     9.0642    30.7868    8.91542   94.06863    23.8116 3.3845e+02      4.655     0.3461 0.0000e+00
      5.000     9.0578    30.7916    8.90783   93.97567    23.8152 2.5371e+02      5.563     0.3748 0.0000e+00
      6.000     9.0566    30.7858    8.97152   94.62969    23.8114 1.8741e+02      6.330     0.4057 0.0000e+00
      7.000     9.0520    30.7908    9.00884   95.01021    23.8151 1.3186e+02      7.238     0.4443 0.0000e+00
      8.000     9.0545    30.7739    8.93790   94.24833    23.8024 9.6374e+01      8.044     0.4553 0.0000e+00
      9.000     9.0508    30.7922    9.02518   95.15843    23.8171 6.9150e+01      9.112     0.4512 0.0000e+00
     10.000     9.0485    30.7801    9.09160   95.83648    23.8079 5.1159e+01     10.215     0.4401 0.0000e+00
     11.000     9.0419    30.7826    9.26825   97.69567    23.8102 3.6797e+01     11.338     0.4586 0.0000e+00
     12.000     9.0395    30.7694    9.38157   98.87918    23.8001 2.6804e+01     12.446     0.4381 0.0000e+00
     13.000     9.0386    30.7794    9.42386   99.29884    23.8091 1.9832e+01     13.406     0.4228 0.0000e+00
     14.000     9.0321    30.7673    9.46102   99.69479    23.7993 1.4476e+01     14.725     0.4334 0.0000e+00
     15.000     9.0308    30.7697    9.48120   99.89473    23.8021 1.1202e+01     15.557     0.4321 0.0000e+00
     16.000     9.0179    30.7663    9.49705  100.05083    23.7994 8.4639e+00     16.678     0.4243 0.0000e+00
     17.000     9.0153    30.7613    9.50869  100.17144    23.7966 6.5874e+00     17.501     0.4285 0.0000e+00
     18.000     9.0116    30.7714    9.51810  100.27167    23.8060 5.0537e+00     18.400     0.4257 0.0000e+00
     19.000     9.0054    30.7675    9.52093  100.30489    23.8035 3.9935e+00     19.477     0.4029 0.0000e+00
     20.000     9.0036    30.7661    9.52650  100.36671    23.8029 3.3374e+00     20.258     0.4030 0.0000e+00
     21.000     8.9956    30.7728    9.53803  100.49013    23.8091 2.7815e+00     21.223     0.4018 0.0000e+00
     22.000     8.9933    30.7646    9.55025  100.60640    23.8030 2.4201e+00     22.351     0.4113 0.0000e+00
     23.000     8.9926    30.7634    9.56106  100.71438    23.8035 2.1759e+00     23.242     0.3980 0.0000e+00
     24.000     8.9888    30.7665    9.57015  100.81452    23.8060 1.9729e+00     24.313     0.4186 0.0000e+00
     25.000     8.9837    30.7669    9.57607  100.88489    23.8065 1.8411e+00     25.719     0.4369 0.0000e+00
     26.000     8.9702    30.7678    9.57939  100.91950    23.8077 1.7690e+00     26.341     0.4059 0.0000e+00
     27.000     8.9768    30.7610    9.58269  100.95689    23.8030 1.6980e+00     27.290     0.3971 0.0000e+00
     28.000     8.9757    30.7688    9.58251  100.95698    23.8116 1.6507e+00     28.454     0.4385 0.0000e+00
     29.000     8.9702    30.7707    9.58380  100.96710    23.8118 1.6203e+00     29.218     0.4081 0.0000e+00
     30.000     8.9668    30.7623    9.59075  101.01819    23.8054 1.5954e+00     30.292     0.4080 0.0000e+00
     31.000     8.9669    30.7640    9.60020  101.06784    23.8080 1.5790e+00     31.709     0.4797 0.0000e+00
     32.000     8.9678    30.7656    9.59338  100.99683    23.8095 1.5701e+00     32.530     0.4209 0.0000e+00
     33.000     8.9703    30.7659    9.59874  100.99981    23.8096 1.5625e+00     33.470     0.4186 0.0000e+00
     34.000     8.9713    30.7661    9.59875  101.00802    23.8095 1.5577e+00     34.773     0.4192 0.0000e+00
     35.000     8.9731    30.7623    9.59507  100.96420    23.8063 1.5546e+00     35.631     0.4081 0.0000e+00
     36.000     8.9674    30.7656    9.60014  100.99963    23.8087 1.5523e+00     36.407     0.4183 0.0000e+00
     37.000     8.9645    30.7611    9.60402  101.03393    23.8049 1.5509e+00     37.403     0.4268 0.0000e+00
     38.000     8.9658    30.7586    9.60729  101.06951    23.8036 1.5502e+00     38.378     0.4314 0.0000e+00
     39.000 -9.990e-29 -9.990e-29 -9.990e-29 -9.990e-29 -9.990e-29 -9.990e-29 -9.990e-29 -9.990e-29 -9.990e-29
     40.000     8.9692    30.7606    9.61449  101.13177    23.8058 1.5489e+00     39.701     0.4271 0.0000e+00
     41.000     8.9704    30.7614    9.61742  101.14495    23.8060 1.5489e+00     40.941     0.4333 0.0000e+00
     42.000     8.9713    30.7591    9.61885  101.16792    23.8038 1.5484e+00     42.061     0.4712 0.0000e+00
     43.000     8.9727    30.7589    9.61877  101.14598    23.8036 1.5482e+00     43.257     0.4443 0.0000e+00
     44.000     8.9669    30.7593    9.62277  101.14715    23.8037 1.5481e+00     44.240     0.4110 0.0000e+00
     45.000     8.9483    30.7567    9.62611  101.17429    23.8017 1.5478e+00     45.521     0.4185 0.0000e+00
     46.000     8.9394    30.7574    9.62367  101.13862    23.8031 1.5476e+00     46.473     0.4205 0.0000e+00
     47.000     8.9147    30.7662    9.62234  101.06064    23.8128 1.5479e+00     47.643     0.4228 0.0000e+00
     48.000     8.9100    30.7725    9.62706  100.89623    23.8192 1.5481e+00     48.766     0.4342 0.0000e+00
     49.000     8.9082    30.7885    9.63240  100.96725    23.8349 1.5479e+00     49.608     0.4270 0.0000e+00
     50.000     8.8993    30.7934    9.64201  101.04441    23.8397 1.5478e+00     50.575     0.4188 0.0000e+00
     51.000     8.8937    30.7945    9.64961  101.09498    23.8407 1.5475e+00     51.532     0.4301 0.0000e+00
     52.000     8.8931    30.8012    9.65672  101.12518    23.8470 1.5475e+00     52.490     0.4305 0.0000e+00
     53.000     8.8890    30.8074    9.66381  101.15706    23.8530 1.5478e+00     53.502     0.4265 0.0000e+00
     54.000 -9.990e-29 -9.990e-29 -9.990e-29 -9.990e-29 -9.990e-29 -9.990e-29 -9.990e-29 -9.990e-29 -9.990e-29
     55.000     8.8759    30.8081    9.67056  101.21518    23.8536 1.5476e+00     55.020     0.4233 0.0000e+00
     56.000     8.8794    30.8196    9.68010  101.31916    23.8643 1.5473e+00     56.404     0.4335 0.0000e+00
     57.000     8.8677    30.8274    9.68355  101.34363    23.8717 1.5474e+00     57.303     0.4476 0.0000e+00
     58.000     8.8370    30.8226    9.68643  101.37222    23.8671 1.5482e+00     58.354     0.4581 0.0000e+00
     59.000     8.8338    30.8360    9.68970  101.39633    23.8794 1.5472e+00     59.396     0.4474 0.0000e+00
     60.000     8.8365    30.8636    9.69482  101.43484    23.9056 1.5478e+00     60.349     0.4444 0.0000e+00
     61.000     8.8244    30.8669    9.70002  101.49213    23.9087 1.5480e+00     61.392     0.4762 0.0000e+00
     62.000     8.7565    30.8637    9.69926  101.48642    23.9056 1.5472e+00     62.436     0.4334 0.0000e+00
     63.000     8.6614    30.9084    9.69934  101.48713    23.9458 1.5475e+00     63.465     0.4501 0.0000e+00
     64.000     8.6517    31.0052    9.69791  101.47035    24.0366 1.5473e+00     64.410     0.4836 0.0000e+00
     65.000     8.6367    31.0434    9.69673  101.45628    24.0720 1.5472e+00     65.357     0.5052 0.0000e+00
     66.000     8.5966    31.0576    9.69447  101.43289    24.0853 1.5474e+00     66.551     0.5129 0.0000e+00
     67.000     8.5760    31.0816    9.69341  101.42136    24.1069 1.5473e+00     67.510     0.5317 0.0000e+00
     68.000     8.5756    31.1170    9.69223  101.40910    24.1400 1.5479e+00     68.406     0.5554 0.0000e+00
     69.000     8.5778    31.1385    9.69473  101.43505    24.1602 1.5472e+00     69.546     0.5881 0.0000e+00
     70.000     8.5708    31.1329    9.69567  101.44524    24.1551 1.5474e+00     70.469     0.5770 0.0000e+00
     71.000     8.5700    31.1308    9.68650  101.35100    24.1532 1.5477e+00     71.328     0.5883 0.0000e+00
     72.000     8.5607    31.1373    9.68415  101.33095    24.1592 1.5475e+00     72.335     0.6036 0.0000e+00
     73.000     8.5578    31.1433    9.68508  101.34051    24.1647 1.5476e+00     73.210     0.6150 0.0000e+00
     74.000     8.5576    31.1504    9.68444  101.33325    24.1713 1.5474e+00     74.057     0.6272 0.0000e+00
     75.000     8.5586    31.1521    9.68253  101.31342    24.1729 1.5476e+00     74.814     0.6362 0.0000e+00
     76.000     8.5577    31.1506    9.67848  101.27040    24.1716 1.5474e+00     75.472     0.6457 0.0000e+00
     77.000     8.5571    31.1499    9.67279  101.21160    24.1709 1.5474e+00     76.390     0.6614 0.0000e+00
     78.000     8.5575    31.1501    9.69341  101.42633    24.1714 1.5480e+00     77.594     0.7554 0.0000e+00
     77.000     8.5588    31.1503    9.68526  101.35051    24.1712 1.5471e+00     77.060     0.7400 0.0000e+00
     76.000     8.5591    31.1502    9.68840  101.39343    24.1712 1.5459e+00     76.233     0.7014 0.0000e+00
     75.000     8.5574    31.1501    9.69162  101.41905    24.1711 1.5458e+00     75.350     0.6661 0.0000e+00
     74.000     8.5583    31.1511    9.68785  101.39943    24.1720 1.5472e+00     74.512     0.6768 0.0000e+00
     73.000     8.5609    31.1499    9.68383  101.37354    24.1710 1.5472e+00     73.529     0.6753 0.0000e+00
     72.000     8.5602    31.1487    9.68566  101.40210    24.1698 1.5472e+00     72.610     0.6675 0.0000e+00
     71.000     8.5623    31.1492    9.68807  101.45802    24.1703 1.5469e+00     71.561     0.6220 0.0000e+00
     70.000     8.5680    31.1442    9.68921  101.53100    24.1660 1.5469e+00     70.604     0.5930 0.0000e+00
     69.000     8.5707    31.1404    9.67740  101.45711    24.1622 1.5468e+00     69.716     0.6052 0.0000e+00
     68.000     8.5661    31.1370    9.66807  101.44773    24.1590 1.5469e+00     68.596     0.6079 0.0000e+00
     67.000     8.5777    31.1418    9.66362  101.52478    24.1635 1.5468e+00     67.640     0.6222 0.0000e+00
     66.000     8.5866    31.1289    9.65753  101.51354    24.1517 1.5465e+00     66.623     0.6257 0.0000e+00
     65.000     8.5926    31.1207    9.65000  101.46228    24.1441 1.5467e+00     65.663     0.6079 0.0000e+00
     64.000     8.6071    31.1135    9.64218  101.41513    24.1375 1.5466e+00     64.614     0.6179 0.0000e+00
     63.000     8.6459    31.0953    9.63136  101.31998    24.1209 1.5467e+00     63.556     0.6127 0.0000e+00
     62.000     8.6833    31.0533    9.63005  101.31746    24.0823 1.5465e+00     62.482     0.5294 0.0000e+00
     61.000     8.7283    31.0207    9.62846  101.30438    24.0521 1.5465e+00     61.559     0.5055 0.0000e+00
     60.000     8.8171    30.9648    9.62679  101.28418    24.0012 1.5462e+00     60.265     0.4513 0.0000e+00
     59.000     8.8404    30.9010    9.62536  101.27213    23.9415 1.5466e+00     59.581     0.4643 0.0000e+00
     58.000     8.8565    30.8562    9.62783  101.30426    23.8995 1.5465e+00     58.559     0.4711 0.0000e+00
     57.000     8.8752    30.8421    9.61985  101.23421    23.8861 1.5466e+00     57.522     0.4964 0.0000e+00
     56.000     8.8894    30.8237    9.62376  101.29433    23.8688 1.5468e+00     56.520     0.4770 0.0000e+00
     55.000     8.8963    30.8095    9.62004  101.28713    23.8553 1.5464e+00     55.408     0.4595 0.0000e+00
     54.000     8.9013    30.8042    9.62310  101.35083    23.8504 1.5466e+00     54.496     0.4666 0.0000e+00
     53.000     8.9007    30.7966    9.62212  101.36025    23.8433 1.5465e+00     53.369     0.4750 0.0000e+00
     52.000     8.9006    30.7981    9.62135  101.35698    23.8445 1.5467e+00     52.555     0.4551 0.0000e+00
     51.000     8.9022    30.7992    9.62032  101.34141    23.8456 1.5467e+00     51.514     0.4722 0.0000e+00
     50.000     8.9073    30.7978    9.62003  101.32698    23.8443 1.5465e+00     50.387     0.4678 0.0000e+00
     49.000     8.9159    30.7945    9.62201  101.35294    23.8410 1.5465e+00     49.470     0.4818 0.0000e+00
     48.000     8.9241    30.7879    9.61453  101.28091    23.8347 1.5463e+00     48.437     0.4991 0.0000e+00
     47.000     8.9399    30.7797    9.61589  101.31185    23.8267 1.5467e+00     47.364     0.4463 0.0000e+00
     46.000     8.9559    30.7781    9.62521  101.42041    23.8237 1.5467e+00     46.430     0.4491 0.0000e+00
     45.000     8.9646    30.7683    9.62834  101.46287    23.8133 1.5467e+00     45.316     0.4762 0.0000e+00
     44.000     8.9679    30.7619    9.62975  101.46707    23.8070 1.5469e+00     44.389     0.4720 0.0000e+00
     43.000     8.9661    30.7604    9.62777  101.43678    23.8052 1.5465e+00     43.347     0.4868 0.0000e+00
     42.000     8.9610    30.7592    9.62544  101.41753    23.8044 1.5468e+00     42.347     0.4792 0.0000e+00
     41.000     8.9623    30.7622    9.62695  101.44217    23.8075 1.5469e+00     41.352     0.4597 0.0000e+00
     40.000     8.9642    30.7631    9.62659  101.45140    23.8082 1.5471e+00     40.413     0.4747 0.0000e+00
     39.000     8.9711    30.7620    9.62168  101.39877    23.8070 1.5482e+00     39.291     0.4630 0.0000e+00
     38.000     8.9755    30.7620    9.62661  101.44960    23.8062 1.5487e+00     38.350     0.4680 0.0000e+00
     37.000     8.9792    30.7618    9.62516  101.43308    23.8052 1.5498e+00     37.308     0.4765 0.0000e+00
     36.000     8.9820    30.7629    9.62651  101.45321    23.8055 1.5511e+00     36.284     0.4736 0.0000e+00
     35.000     8.9751    30.7636    9.62253  101.41891    23.8055 1.5536e+00     35.230     0.4475 0.0000e+00
     34.000     8.9741    30.7588    9.62225  101.42242    23.8025 1.5576e+00     34.284     0.4847 0.0000e+00
     33.000     8.9761    30.7593    9.62272  101.43506    23.8034 1.5626e+00     33.225     0.4684 0.0000e+00
     32.000     8.9798    30.7618    9.62606  101.48119    23.8052 1.5712e+00     32.309     0.4462 0.0000e+00
     31.000     8.9835    30.7655    9.63002  101.53774    23.8077 1.5825e+00     31.326     0.4448 0.0000e+00
     30.000     8.9826    30.7670    9.63261  101.57348    23.8080 1.5994e+00     30.344     0.4480 0.0000e+00
     29.000     8.9819    30.7679    9.63005  101.55122    23.8087 1.6223e+00     29.465     0.4508 0.0000e+00
     28.000     8.9814    30.7683    9.61983  101.45023    23.8091 1.6552e+00     28.334     0.4559 0.0000e+00
     27.000     8.9843    30.7680    9.62143  101.47131    23.8090 1.7038e+00     27.278     0.4425 0.0000e+00
     26.000     8.9872    30.7689    9.62273  101.48185    23.8095 1.7698e+00     26.295     0.4458 0.0000e+00
     25.000     8.9913    30.7679    9.62497  101.51034    23.8080 1.8677e+00     25.159     0.4470 0.0000e+00
     24.000     8.9942    30.7674    9.62738  101.54493    23.8072 1.9987e+00     24.203     0.4333 0.0000e+00
     23.000     9.0005    30.7674    9.62032  101.48258    23.8067 2.1923e+00     23.208     0.4410 0.0000e+00
     22.000     9.0078    30.7669    9.61596  101.44809    23.8054 2.4656e+00     22.135     0.4763 0.0000e+00
     21.000     9.0116    30.7644    9.62073  101.51256    23.8022 2.8073e+00     21.115     0.4426 0.0000e+00
     20.000     9.0132    30.7632    9.62542  101.56712    23.8009 3.3247e+00     20.232     0.4529 0.0000e+00
     19.000     9.0167    30.7619    9.63308  101.64981    23.7995 4.0310e+00     19.076     0.4988 0.0000e+00
     18.000     9.0177    30.7629    9.63548  101.67225    23.7999 4.9813e+00     18.189     0.4395 0.0000e+00
     17.000     9.0152    30.7617    9.63203  101.62522    23.7986 6.3172e+00     17.333     0.4627 0.0000e+00
     16.000     9.0176    30.7610    9.62338  101.53223    23.7983 8.2661e+00     16.245     0.4927 0.0000e+00
     15.000     9.0221    30.7627    9.62016  101.51837    23.7995 1.0977e+01     15.323     0.4767 0.0000e+00
     14.000     9.0286    30.7629    9.62383  101.58355    23.7989 1.4432e+01     14.122     0.4491 0.0000e+00
     13.000     9.0334    30.7624    9.62386  101.58741    23.7977 1.9720e+01     13.214     0.4374 0.0000e+00
     12.000     9.0392    30.7622    9.62162  101.56866    23.7969 2.6663e+01     12.260     0.4471 0.0000e+00
     11.000     9.0410    30.7622    9.61959  101.56928    23.7958 3.6629e+01     11.220     0.4381 0.0000e+00
     10.000     9.0405    30.7614    9.61887  101.66323    23.7948 5.0859e+01     10.138     0.4396 0.0000e+00
      9.000     9.0357    30.7605    9.61679  101.79544    23.7942 7.0816e+01      9.175     0.4448 0.0000e+00
      8.000     9.0375    30.7607    9.54755  101.12103    23.7951 9.8717e+01      8.103     0.4658 0.0000e+00
      7.000     9.0473    30.7629   10.04378  100.26739    23.7966 1.3771e+02      7.116     0.4602 0.0000e+00
      6.000     9.0556    30.7645   10.90645  100.18404    23.7964 1.8394e+02      6.102     0.4770 0.0000e+00
      5.000     9.0577    30.7615   11.39333  100.56406    23.7927 2.5727e+02      5.185     0.4241 0.0000e+00
      4.000     9.0613    30.7618   11.41359  100.76472    23.7926 3.5481e+02      4.226     0.3785 0.0000e+00
      3.000     9.0882    30.7625   11.44961  100.85581    23.7926 4.9189e+02      3.295     0.3349 0.0000e+00
      2.000     9.1463    30.7692   11.31656  100.85366    23.7940 6.4632e+02      2.464     0.2825 0.0000e+00
      1.000     9.2378    30.7637   11.38243  100.85526    23.7810 1.0933e+03      1.731     0.2305 0.0000e+00
