* Sea-Bird SBE19plus Data File:
* FileName = C:\data\otf\2007\ctd-07147.hex
* Software Version 1.55
* Temperature SN =  5061
* Conductivity SN =  5061
* System UpLoad Time = Aug 15 2007 17:40:01
* ds
* SeacatPlus V 1.6a  SERIAL NO. 5061    15 Aug 2007  15:31:53
* vbatt = 10.9, vlith =  8.7, ioper =  61.6 ma, ipump =  57.5 ma, 
* iext01 =  95.2 ma
* iext23 =  58.1 ma
* 
* status = not logging
* number of scans to average = 1
* samples = 153039, free = 288466, casts = 154
* mode = profile, minimum cond freq = 3000, pump delay = 60 sec
* autorun = no, ignore magnetic switch = no
* battery type = alkaline, battery cutoff =  7.3 volts
* pressure sensor = strain gauge, range = 870.0
* SBE 38 = no, Gas Tension Device = no
* Ext Volt 0 = yes, Ext Volt 1 = yes, Ext Volt 2 = yes, Ext Volt 3 = yes
* echo commands = yes
* output format = raw HEX
* S>
* 
* SeacatPlus V 1.6a  SERIAL NO. 5061    15 Aug 2007  15:32:18
* temperature:  05-oct-06
*     TA0 = 1.254184e-03
*     TA1 = 2.596730e-04
*     TA2 = 5.165612e-07
*     TA3 = 1.318931e-07
*     TOFFSET = 0.000000e+00
* conductivity:  05-oct-06
*     G = -9.978144e-01
*     H = 1.555200e-01
*     I = -4.839108e-04
*     J = 6.121100e-05
*     CF0 = 2.539936e+03
*     CPCOR = -9.570000e-08
*     CTCOR = 3.250000e-06
*     CSLOPE = 1.000000e+00
* pressure S/N = 2362539, range = 870 psia:  24-aug-06
*     PA0 = 2.171091e-01
*     PA1 = 2.647085e-03
*     PA2 = 1.419397e-11
*     PTCA0 = 5.242437e+05
*     PTCA1 = 7.545345e+00
*     PTCA2 = -1.835354e-01
*     PTCB0 = 2.537125e+01
*     PTCB1 = -1.750000e-03
*     PTCB2 = 0.000000e+00
*     PTEMPA0 = -5.753989e+01
*     PTEMPA1 = 5.235813e+01
*     PTEMPA2 = -4.015521e-02
*     POFFSET = 0.000000e+00
* volt 0: offset = -4.682842e-02, slope = 1.249147e+00
* volt 1: offset = -4.695158e-02, slope = 1.248145e+00
* volt 2: offset = -4.685263e-02, slope = 1.248783e+00
* volt 3: offset = -4.690316e-02, slope = 1.249508e+00
*     EXTFREQSF = 1.000002e+00
* dh
* cast 147 29 Jul 2007 07:57:13 samples 144481 to 145744, avg = 1, stop = mag switch
* S> 
# nquan = 10
# nvalues = 135                         
# units = specified
# name 0 = depSM: Depth [salt water, m]
# name 1 = tv290C: Temperature [ITS-90, deg C]
# name 2 = sal00: Salinity [PSU]
# name 3 = sbeox0Mg/L: Oxygen, SBE 43 [mg/l]
# name 4 = sbeox0PS: Oxygen, SBE 43 [% saturation]
# name 5 = sigma-t00: Density [sigma-t, Kg/m^3 ]
# name 6 = par: PAR/Irradiance, Biospherical/Licor
# name 7 = prdM: Pressure, Strain Gauge [db]
# name 8 = flECO-AFL: Fluorescence, Wetlab ECO-AFL/FL [mg/m^3]
# name 9 = flag: flag
# span 0 =      1.000,     70.000       
# span 1 =     8.3154,    10.9216       
# span 2 =    28.8152,    31.7684       
# span 3 =    8.29541,    9.28757       
# span 4 =   87.54442,   99.50857       
# span 5 =    21.9785,    24.6819       
# span 6 = 1.5481e+00, 7.1385e+02       
# span 7 =      1.084,     70.510       
# span 8 =     0.6953,     1.2804       
# span 9 = 0.0000e+00, 0.0000e+00       
# interval = meters: 1                  
# start_time = Jul 29 2007 07:57:13
# bad_flag = -9.990e-29
# sensor 0 = Frequency 0  temperature, 5061, 05-Oct-06
# sensor 1 = Frequency 1  conductivity, 5061, 05-Oct-06, cpcor = -9.5700e-08
# sensor 2 = Pressure Number
# sensor 3 = Extrnl Volt  0  irradiance (PAR), primary, 4751, 08/10/06
# sensor 4 = Extrnl Volt  1  Oxygen, SBE, primary, 1081, 10/24/06
# sensor 5 = Extrnl Volt  2  WET Labs, ECO_AFL
# sensor 6 = Extrnl Volt  3  userpoly 0, 0627, 10/11/06
# datcnv_date = Oct 15 2007 14:49:54, 5.37e
# datcnv_in = I:\bob d\OTF_GEM\2007\ctd-07147.hex I:\Willette\OTF\CTD\5061.con
# datcnv_skipover = 0
# filter_date = Oct 15 2007 15:02:43, 5.37e
# filter_in = I:\Willette\OTF\CTD\2007\CTD Data\ctd-07147.cnv
# filter_low_pass_tc_A = 1.000
# filter_low_pass_tc_B = 0.150
# filter_low_pass_A_vars = prdM
# filter_low_pass_B_vars =
# loopedit_date = Oct 15 2007 15:07:01, 5.37e
# loopedit_in = I:\Willette\OTF\CTD\2007\CTD Data\ctd-07147.cnv
# loopedit_minVelocity = 0.250                                                                                            
# loopedit_surfaceSoak: minDepth = 5.0, maxDepth = 20, useDeckPress = 1                                                   
# loopedit_excl_bad_scans = yes
# alignctd_date = Oct 15 2007 15:14:25, 5.37e
# alignctd_in = I:\Willette\OTF\CTD\2007\CTD Data\ctd-07147.cnv
# alignctd_adv = tv290C 0.500, sbeox0Mg/L 4.000, sbeox0PS 4.000                                                                                                                                                                      
# binavg_date = Oct 15 2007 15:18:53, 5.37e
# binavg_in = I:\Willette\OTF\CTD\2007\CTD Data\ctd-07147.cnv
# binavg_bintype = meters
# binavg_binsize = 1
# binavg_excl_bad_scans = yes
# binavg_skipover = 0
# binavg_surface_bin = no, min = 0.000, max = 0.000, value = 0.000
# file_type = ascii
*END*
      5.000    10.8528    28.8778    8.29710   89.27314    22.0345 5.2252e+01      5.103     1.1219 0.0000e+00
      6.000    10.6514    28.9960    8.29541   88.96028    22.1456 4.0213e+01      6.166     0.9768 0.0000e+00
      7.000    10.3814    29.2679    8.40865   89.95170    22.4014 2.9402e+01      7.066     0.9081 0.0000e+00
      8.000    10.2334    29.4837    8.45955   90.12883    22.6020 2.2171e+01      8.143     0.7851 0.0000e+00
      9.000    10.0530    29.6636    8.54882   90.86833    22.7648 1.7655e+01      9.159     0.7615 0.0000e+00
     10.000     9.9022    29.8661    8.52470   90.53507    22.9494 1.3060e+01     10.080     0.7293 0.0000e+00
     11.000     9.6756    30.0985    8.55971   90.58901    23.1598 1.0172e+01     11.152     0.7289 0.0000e+00
     12.000     9.4865    30.3590    8.61948   90.96648    23.3981 8.2922e+00     12.063     0.6953 0.0000e+00
     13.000     9.4066    30.5308    8.64660   90.91785    23.5541 6.6968e+00     13.131     0.7014 0.0000e+00
     14.000     9.2522    30.6510    8.69481   91.30687    23.6607 5.5868e+00     14.137     0.7554 0.0000e+00
     15.000     9.0213    30.9248    8.60477   90.27893    23.9095 4.6790e+00     15.138     0.7195 0.0000e+00
     16.000     8.7997    31.1523    8.60767   90.24787    24.1188 4.0682e+00     16.132     0.7491 0.0000e+00
     17.000     8.6472    31.4081    8.65935   90.77345    24.3515 3.6098e+00     17.076     0.7861 0.0000e+00
     18.000     8.5783    31.5272    8.66017   90.76203    24.4604 3.2483e+00     18.226     0.8441 0.0000e+00
     19.000     8.5317    31.5580    8.64433   90.55715    24.4914 2.9750e+00     19.188     0.8541 0.0000e+00
     20.000     8.5082    31.6004    8.67832   90.90983    24.5301 2.7489e+00     20.132     0.8932 0.0000e+00
     21.000     8.4991    31.6286    8.62859   90.34053    24.5541 2.5590e+00     21.201     0.9030 0.0000e+00
     22.000     8.4722    31.6309    8.63840   90.42151    24.5582 2.4060e+00     22.183     0.9020 0.0000e+00
     23.000     8.4572    31.6764    8.67428   90.79045    24.5976 2.2716e+00     23.203     0.9045 0.0000e+00
     24.000     8.4341    31.6758    8.66325   90.67185    24.5995 2.1653e+00     24.279     0.9493 0.0000e+00
     25.000     8.4208    31.6922    8.68596   90.89355    24.6153 2.0782e+00     25.204     0.9225 0.0000e+00
     26.000     8.4158    31.7025    8.73088   91.35928    24.6248 2.0021e+00     26.217     0.9207 0.0000e+00
     27.000     8.4159    31.7014    8.70054   91.03737    24.6239 1.9357e+00     27.283     0.9222 0.0000e+00
     28.000     8.4078    31.6924    8.64992   90.49273    24.6175 1.8800e+00     28.268     0.9125 0.0000e+00
     29.000     8.4024    31.7026    8.63423   90.31649    24.6267 1.8310e+00     29.214     0.9122 0.0000e+00
     30.000     8.3986    31.7131    8.64607   90.43218    24.6354 1.7907e+00     30.271     0.9230 0.0000e+00
     31.000     8.3879    31.7191    8.65203   90.52387    24.6414 1.7567e+00     31.286     0.9436 0.0000e+00
     32.000     8.3822    31.7263    8.55404   89.47066    24.6484 1.7276e+00     32.283     0.9598 0.0000e+00
     33.000     8.3773    31.7327    8.43694   88.24146    24.6541 1.7028e+00     33.213     0.9660 0.0000e+00
     34.000     8.3787    31.7684    8.37306   87.54442    24.6819 1.6800e+00     34.372     0.9632 0.0000e+00
     35.000     8.3674    31.7509    8.55341   89.37307    24.6698 1.6621e+00     35.266     0.9894 0.0000e+00
     36.000     8.3521    31.7337    8.86075   92.57686    24.6576 1.6465e+00     36.321     0.9554 0.0000e+00
     37.000     8.3332    31.7220    8.99364   93.96540    24.6522 1.6323e+00     37.334     0.9675 0.0000e+00
     38.000     8.3330    31.7206    9.06173   94.67810    24.6512 1.6201e+00     38.389     0.9826 0.0000e+00
     39.000     8.3338    31.7190    9.09381   95.01412    24.6499 1.6102e+00     39.386     1.1138 0.0000e+00
     40.000     8.3354    31.7177    9.11832   95.26898    24.6487 1.6016e+00     40.447     1.1269 0.0000e+00
     41.000     8.3343    31.7170    9.12744   95.36718    24.6481 1.5943e+00     41.372     1.1281 0.0000e+00
     42.000     8.3353    31.7172    9.13550   95.44872    24.6484 1.5877e+00     42.500     1.1371 0.0000e+00
     43.000     8.3363    31.7156    9.14083   95.50669    24.6468 1.5823e+00     43.377     1.1459 0.0000e+00
     44.000     8.3350    31.7157    9.15134   95.61423    24.6470 1.5777e+00     44.433     1.1252 0.0000e+00
     45.000     8.3361    31.7162    9.15871   95.69219    24.6475 1.5738e+00     45.455     1.1340 0.0000e+00
     46.000     8.3345    31.7160    9.16513   95.75349    24.6472 1.5702e+00     46.413     1.1340 0.0000e+00
     47.000     8.3353    31.7160    9.16852   95.78122    24.6473 1.5673e+00     47.451     1.1305 0.0000e+00
     48.000     8.3318    31.7170    9.17675   95.86123    24.6483 1.5649e+00     48.441     1.1220 0.0000e+00
     49.000     8.3270    31.7232    9.17516   95.83356    24.6541 1.5624e+00     49.495     1.1092 0.0000e+00
     50.000     8.3236    31.7247    9.16864   95.76527    24.6555 1.5602e+00     50.429     1.1027 0.0000e+00
     51.000     8.3165    31.7322    9.16858   95.76592    24.6625 1.5579e+00     51.502     1.1065 0.0000e+00
     52.000     8.3164    31.7336    9.17235   95.80449    24.6639 1.5560e+00     52.492     1.1078 0.0000e+00
     53.000     8.3171    31.7324    9.17286   95.80859    24.6628 1.5547e+00     53.481     1.1093 0.0000e+00
     54.000     8.3165    31.7329    9.17656   95.84705    24.6633 1.5533e+00     54.523     1.1031 0.0000e+00
     55.000     8.3158    31.7333    9.17737   95.85509    24.6637 1.5527e+00     55.500     1.1227 0.0000e+00
     56.000     8.3156    31.7339    9.17764   95.85897    24.6642 1.5517e+00     56.480     1.1030 0.0000e+00
     57.000     8.3160    31.7336    9.18180   95.90150    24.6639 1.5512e+00     57.543     1.1047 0.0000e+00
     58.000     8.3155    31.7340    9.18261   95.90997    24.6643 1.5506e+00     58.582     1.1165 0.0000e+00
     59.000     8.3155    31.7345    9.18158   95.89921    24.6646 1.5501e+00     59.572     1.1223 0.0000e+00
     60.000     8.3154    31.7343    9.18337   95.91900    24.6645 1.5501e+00     60.602     1.1091 0.0000e+00
     61.000     8.3158    31.7342    9.18420   95.92943    24.6644 1.5495e+00     61.579     1.0955 0.0000e+00
     62.000     8.3165    31.7336    9.19089   96.00192    24.6639 1.5492e+00     62.602     1.0977 0.0000e+00
     63.000     8.3178    31.7324    9.19180   96.01064    24.6628 1.5495e+00     63.631     1.1082 0.0000e+00
     64.000     8.3190    31.7310    9.19319   96.02479    24.6614 1.5489e+00     64.606     1.0999 0.0000e+00
     65.000     8.3178    31.7318    9.19868   96.08222    24.6621 1.5489e+00     65.632     1.1087 0.0000e+00
     66.000     8.3183    31.7323    9.19526   96.04773    24.6627 1.5487e+00     66.668     1.1139 0.0000e+00
     67.000     8.3181    31.7318    9.18981   95.98661    24.6621 1.5487e+00     67.618     1.1118 0.0000e+00
     68.000     8.3186    31.7316    9.19102   95.99857    24.6619 1.5485e+00     68.641     1.1183 0.0000e+00
     69.000     8.3161    31.7337    9.19311   96.02251    24.6639 1.5483e+00     69.625     1.1188 0.0000e+00
     70.000     8.3171    31.7337    9.18956   95.98740    24.6638 1.5481e+00     70.510     1.1698 0.0000e+00
     69.000     8.3183    31.7334    9.19065   95.99805    24.6635 1.5483e+00     69.555     1.2360 0.0000e+00
     68.000     8.3179    31.7329    9.19152   96.00731    24.6630 1.5481e+00     68.638     1.1940 0.0000e+00
     67.000     8.3176    31.7336    9.19507   96.04299    24.6637 1.5482e+00     67.638     1.2134 0.0000e+00
     66.000     8.3178    31.7329    9.18838   95.97259    24.6631 1.5481e+00     66.657     1.1802 0.0000e+00
     65.000     8.3172    31.7332    9.18794   95.96831    24.6633 1.5484e+00     65.621     1.1964 0.0000e+00
     64.000     8.3166    31.7340    9.18587   95.94672    24.6642 1.5485e+00     64.634     1.2046 0.0000e+00
     63.000     8.3169    31.7336    9.18914   95.98194    24.6637 1.5486e+00     63.617     1.2225 0.0000e+00
     62.000     8.3170    31.7336    9.19275   96.02068    24.6638 1.5485e+00     62.626     1.1980 0.0000e+00
     61.000     8.3180    31.7324    9.19660   96.06156    24.6627 1.5492e+00     61.587     1.2160 0.0000e+00
     60.000     8.3186    31.7315    9.19632   96.05751    24.6619 1.5493e+00     60.592     1.2082 0.0000e+00
     59.000     8.3188    31.7313    9.19201   96.01225    24.6617 1.5498e+00     59.578     1.2106 0.0000e+00
     58.000     8.3175    31.7319    9.19717   96.06699    24.6623 1.5502e+00     58.568     1.2168 0.0000e+00
     57.000     8.3184    31.7315    9.19638   96.05957    24.6619 1.5504e+00     57.562     1.1959 0.0000e+00
     56.000     8.3190    31.7309    9.19864   96.08458    24.6613 1.5512e+00     56.548     1.2297 0.0000e+00
     55.000     8.3205    31.7290    9.19747   96.06696    24.6596 1.5519e+00     55.530     1.2500 0.0000e+00
     54.000     8.3169    31.7320    9.20252   96.12337    24.6625 1.5528e+00     54.533     1.2290 0.0000e+00
     53.000     8.3193    31.7300    9.19945   96.09318    24.6606 1.5539e+00     53.500     1.2221 0.0000e+00
     52.000     8.3209    31.7271    9.20697   96.17728    24.6582 1.5552e+00     52.484     1.1973 0.0000e+00
     51.000     8.3242    31.7253    9.21410   96.25650    24.6561 1.5574e+00     51.497     1.2098 0.0000e+00
     50.000     8.3250    31.7244    9.21796   96.29672    24.6553 1.5589e+00     50.473     1.2329 0.0000e+00
     49.000     8.3262    31.7241    9.21604   96.27385    24.6550 1.5607e+00     49.466     1.1997 0.0000e+00
     48.000 -9.990e-29 -9.990e-29 -9.990e-29 -9.990e-29 -9.990e-29 -9.990e-29 -9.990e-29 -9.990e-29 -9.990e-29
     47.000     8.3229    31.7261    9.21356   96.25418    24.6570 1.5667e+00     47.118     1.2240 0.0000e+00
     46.000     8.3265    31.7224    9.21777   96.30067    24.6535 1.5682e+00     46.429     1.2411 0.0000e+00
     45.000     8.3292    31.7197    9.22364   96.36628    24.6510 1.5713e+00     45.424     1.2390 0.0000e+00
     44.000     8.3331    31.7174    9.22833   96.40780    24.6489 1.5752e+00     44.395     1.2526 0.0000e+00
     43.000     8.3290    31.7182    9.22103   96.33974    24.6495 1.5792e+00     43.330     1.2564 0.0000e+00
     42.000     8.3315    31.7186    9.22088   96.33800    24.6501 1.5838e+00     42.372     1.2660 0.0000e+00
     41.000     8.3333    31.7161    9.22057   96.33807    24.6477 1.5893e+00     41.421     1.2651 0.0000e+00
     40.000     8.3337    31.7155    9.22468   96.38697    24.6472 1.5959e+00     40.302     1.2804 0.0000e+00
     39.000     8.3358    31.7136    9.21668   96.30630    24.6453 1.6031e+00     39.375     1.2667 0.0000e+00
     38.000     8.3391    31.7108    9.21836   96.32810    24.6428 1.6116e+00     38.318     1.2542 0.0000e+00
     37.000     8.3405    31.7088    9.22079   96.35680    24.6410 1.6214e+00     37.382     1.2600 0.0000e+00
     36.000     8.3435    31.7060    9.21853   96.34243    24.6383 1.6325e+00     36.267     1.2358 0.0000e+00
     35.000     8.3452    31.7040    9.22123   96.37773    24.6365 1.6446e+00     35.343     1.2253 0.0000e+00
     34.000     8.3489    31.7006    9.22435   96.41822    24.6335 1.6602e+00     34.324     1.2175 0.0000e+00
     33.000     8.3542    31.6957    9.22915   96.47290    24.6289 1.6771e+00     33.236     1.2111 0.0000e+00
     32.000     8.3583    31.6912    9.22846   96.47622    24.6248 1.6962e+00     32.369     1.2122 0.0000e+00
     31.000     8.3635    31.6849    9.22263   96.43911    24.6190 1.7191e+00     31.244     1.1657 0.0000e+00
     30.000     8.3655    31.6824    9.22572   96.48231    24.6166 1.7451e+00     30.273     1.1724 0.0000e+00
     29.000     8.3751    31.6760    9.23029   96.53984    24.6109 1.7773e+00     29.346     1.1404 0.0000e+00
     28.000     8.3892    31.6594    9.23371   96.59407    24.5956 1.8130e+00     28.229     1.1237 0.0000e+00
     27.000     8.3961    31.6513    9.23375   96.63457    24.5881 1.8524e+00     27.265     1.1002 0.0000e+00
     26.000     8.4030    31.6435    9.23583   96.67797    24.5810 1.9013e+00     26.259     1.0842 0.0000e+00
     25.000     8.4194    31.6321    9.24200   96.76055    24.5708 1.9600e+00     25.227     1.0769 0.0000e+00
     24.000     8.4451    31.6009    9.24930   96.86008    24.5422 2.0344e+00     24.275     0.9711 0.0000e+00
     23.000     8.4579    31.5816    9.25265   96.92992    24.5243 2.1210e+00     23.220     0.9493 0.0000e+00
     22.000     8.4735    31.5661    9.25261   96.96847    24.5104 2.2295e+00     22.235     0.9033 0.0000e+00
     21.000     8.4967    31.5400    9.25639   97.07636    24.4869 2.3705e+00     21.227     0.8659 0.0000e+00
     20.000     8.5239    31.5091    9.25942   97.31703    24.4588 2.5441e+00     20.201     0.8657 0.0000e+00
     19.000     8.5717    31.4566    9.27383   97.69378    24.4117 2.7656e+00     19.206     0.8321 0.0000e+00
     18.000     8.7085    31.3315    9.28425   98.06398    24.2984 3.0819e+00     18.212     0.8063 0.0000e+00
     17.000     8.8989    31.1195    9.28757   98.29648    24.1037 3.4824e+00     17.222     0.7594 0.0000e+00
     16.000     9.1476    30.8228    9.27659   98.33826    23.8317 4.0593e+00     16.196     0.7143 0.0000e+00
     15.000 -9.990e-29 -9.990e-29 -9.990e-29 -9.990e-29 -9.990e-29 -9.990e-29 -9.990e-29 -9.990e-29 -9.990e-29
     14.000 -9.990e-29 -9.990e-29 -9.990e-29 -9.990e-29 -9.990e-29 -9.990e-29 -9.990e-29 -9.990e-29 -9.990e-29
     13.000 -9.990e-29 -9.990e-29 -9.990e-29 -9.990e-29 -9.990e-29 -9.990e-29 -9.990e-29 -9.990e-29 -9.990e-29
     12.000     9.4095    30.4900    9.25034   98.39361    23.5269 9.1720e+00     11.957     0.7024 0.0000e+00
     11.000     9.4481    30.4501    9.23878   98.39960    23.4916 1.1077e+01     11.133     0.7071 0.0000e+00
     10.000     9.6156    30.2552    9.22006   98.61567    23.3152 1.4162e+01     10.062     0.7059 0.0000e+00
      9.000     9.7896    30.0565    9.21359   98.93631    23.1358 1.8002e+01      9.018     0.7272 0.0000e+00
      8.000    10.0319    29.7647    9.20237   98.94584    22.8729 2.3293e+01      8.069     0.7476 0.0000e+00
      7.000    10.1804    29.5471    9.19113   99.13506    22.6729 3.1250e+01      7.042     0.7930 0.0000e+00
      6.000    10.2755    29.4449    9.18935   99.36256    22.5793 4.2420e+01      6.080     0.8372 0.0000e+00
      5.000    10.4779    29.2528    9.17795   99.50857    22.4005 5.8204e+01      5.030     0.9403 0.0000e+00
      4.000    10.6388    29.0896    9.15401   99.39639    22.2460 8.9225e+01      4.035     1.0126 0.0000e+00
      3.000    10.7854    28.9396    9.11810   99.08157    22.1023 1.3792e+02      3.050     1.1260 0.0000e+00
      2.000    10.8857    28.8518    9.08214   98.70125    22.0159 2.2466e+02      1.987     1.1800 0.0000e+00
      1.000    10.9216    28.8152    8.95301   97.17861    21.9785 7.1385e+02      1.084     1.0808 0.0000e+00
