* Sea-Bird SBE19plus Data File:
* FileName = C:\data\otf\2007\ctd-07074.hex
* Software Version 1.55
* Temperature SN =  5061
* Conductivity SN =  5061
* System UpLoad Time = Aug 15 2007 16:18:03
* ds
* SeacatPlus V 1.6a  SERIAL NO. 5061    15 Aug 2007  15:31:53
* vbatt = 10.9, vlith =  8.7, ioper =  61.6 ma, ipump =  57.5 ma, 
* iext01 =  95.2 ma
* iext23 =  58.1 ma
* 
* status = not logging
* number of scans to average = 1
* samples = 153039, free = 288466, casts = 154
* mode = profile, minimum cond freq = 3000, pump delay = 60 sec
* autorun = no, ignore magnetic switch = no
* battery type = alkaline, battery cutoff =  7.3 volts
* pressure sensor = strain gauge, range = 870.0
* SBE 38 = no, Gas Tension Device = no
* Ext Volt 0 = yes, Ext Volt 1 = yes, Ext Volt 2 = yes, Ext Volt 3 = yes
* echo commands = yes
* output format = raw HEX
* S>
* 
* SeacatPlus V 1.6a  SERIAL NO. 5061    15 Aug 2007  15:32:18
* temperature:  05-oct-06
*     TA0 = 1.254184e-03
*     TA1 = 2.596730e-04
*     TA2 = 5.165612e-07
*     TA3 = 1.318931e-07
*     TOFFSET = 0.000000e+00
* conductivity:  05-oct-06
*     G = -9.978144e-01
*     H = 1.555200e-01
*     I = -4.839108e-04
*     J = 6.121100e-05
*     CF0 = 2.539936e+03
*     CPCOR = -9.570000e-08
*     CTCOR = 3.250000e-06
*     CSLOPE = 1.000000e+00
* pressure S/N = 2362539, range = 870 psia:  24-aug-06
*     PA0 = 2.171091e-01
*     PA1 = 2.647085e-03
*     PA2 = 1.419397e-11
*     PTCA0 = 5.242437e+05
*     PTCA1 = 7.545345e+00
*     PTCA2 = -1.835354e-01
*     PTCB0 = 2.537125e+01
*     PTCB1 = -1.750000e-03
*     PTCB2 = 0.000000e+00
*     PTEMPA0 = -5.753989e+01
*     PTEMPA1 = 5.235813e+01
*     PTEMPA2 = -4.015521e-02
*     POFFSET = 0.000000e+00
* volt 0: offset = -4.682842e-02, slope = 1.249147e+00
* volt 1: offset = -4.695158e-02, slope = 1.248145e+00
* volt 2: offset = -4.685263e-02, slope = 1.248783e+00
* volt 3: offset = -4.690316e-02, slope = 1.249508e+00
*     EXTFREQSF = 1.000002e+00
* dh
* cast  74 14 Jul 2007 11:06:04 samples 49585 to 49852, avg = 4, stop = mag switch
* S> 
# nquan = 10
# nvalues = 112                         
# units = specified
# name 0 = depSM: Depth [salt water, m]
# name 1 = tv290C: Temperature [ITS-90, deg C]
# name 2 = sal00: Salinity [PSU]
# name 3 = sbeox0Mg/L: Oxygen, SBE 43 [mg/l]
# name 4 = sbeox0PS: Oxygen, SBE 43 [% saturation]
# name 5 = sigma-t00: Density [sigma-t, Kg/m^3 ]
# name 6 = par: PAR/Irradiance, Biospherical/Licor
# name 7 = prdM: Pressure, Strain Gauge [db]
# name 8 = flECO-AFL: Fluorescence, Wetlab ECO-AFL/FL [mg/m^3]
# name 9 = flag: flag
# span 0 =      1.000,     58.000       
# span 1 =     8.4849,     9.0042       
# span 2 =    31.0736,    31.6083       
# span 3 =    8.96821,    9.80093       
# span 4 =   94.24752,  102.74784       
# span 5 =    24.0483,    24.5409       
# span 6 = 1.5509e+00, 6.5874e+02       
# span 7 =      2.257,     57.525       
# span 8 =     0.5841,     1.2458       
# span 9 = 0.0000e+00, 0.0000e+00       
# interval = meters: 1                  
# start_time = Jul 14 2007 11:06:04
# bad_flag = -9.990e-29
# sensor 0 = Frequency 0  temperature, 5061, 05-Oct-06
# sensor 1 = Frequency 1  conductivity, 5061, 05-Oct-06, cpcor = -9.5700e-08
# sensor 2 = Pressure Number
# sensor 3 = Extrnl Volt  0  irradiance (PAR), primary, 4751, 08/10/06
# sensor 4 = Extrnl Volt  1  Oxygen, SBE, primary, 1081, 10/24/06
# sensor 5 = Extrnl Volt  2  WET Labs, ECO_AFL
# sensor 6 = Extrnl Volt  3  userpoly 0, 0627, 10/11/06
# datcnv_date = Oct 15 2007 14:49:46, 5.37e
# datcnv_in = I:\bob d\OTF_GEM\2007\ctd-07074.hex I:\Willette\OTF\CTD\5061.con
# datcnv_skipover = 0
# filter_date = Oct 15 2007 15:02:26, 5.37e
# filter_in = I:\Willette\OTF\CTD\2007\CTD Data\ctd-07074.cnv
# filter_low_pass_tc_A = 1.000
# filter_low_pass_tc_B = 0.150
# filter_low_pass_A_vars = prdM
# filter_low_pass_B_vars =
# loopedit_date = Oct 15 2007 15:06:48, 5.37e
# loopedit_in = I:\Willette\OTF\CTD\2007\CTD Data\ctd-07074.cnv
# loopedit_minVelocity = 0.250                                                                                            
# loopedit_surfaceSoak: minDepth = 5.0, maxDepth = 20, useDeckPress = 1                                                   
# loopedit_excl_bad_scans = yes
# alignctd_date = Oct 15 2007 15:14:16, 5.37e
# alignctd_in = I:\Willette\OTF\CTD\2007\CTD Data\ctd-07074.cnv
# alignctd_adv = tv290C 0.500, sbeox0Mg/L 4.000, sbeox0PS 4.000                                                                                                                                                                      
# binavg_date = Oct 15 2007 15:18:44, 5.37e
# binavg_in = I:\Willette\OTF\CTD\2007\CTD Data\ctd-07074.cnv
# binavg_bintype = meters
# binavg_binsize = 1
# binavg_excl_bad_scans = yes
# binavg_skipover = 0
# binavg_surface_bin = no, min = 0.000, max = 0.000, value = 0.000
# file_type = ascii
*END*
      4.000     8.8862    31.1118    8.96821   94.24752    24.0784 1.3625e+02      4.984     0.5841 0.0000e+00
      5.000     8.8484    31.1614    9.17029   96.34519    24.1255 1.1217e+02      5.806     0.6707 0.0000e+00
      6.000     8.8270    31.2064    9.29292   97.59708    24.1682 9.1037e+01      6.592     0.7404 0.0000e+00
      7.000     8.8179    31.2324    9.36251   98.31840    24.1929 7.3291e+01      7.352     0.7672 0.0000e+00
      8.000     8.8071    31.2475    9.41372   98.86026    24.2072 5.8523e+01      8.089     0.7829 0.0000e+00
      9.000     8.7928    31.2575    9.45350   99.26773    24.2164 4.6469e+01      8.834     0.7782 0.0000e+00
     10.000     8.7835    31.2701    9.48565   99.58198    24.2279 3.6883e+01      9.602     0.7552 0.0000e+00
     11.000     8.7653    31.2980    9.52135   99.92454    24.2527 2.8962e+01     10.537     0.7658 0.0000e+00
     12.000     8.7273    31.3229    9.56181  100.31929    24.2748 2.3267e+01     11.745     0.7502 0.0000e+00
     13.000     8.7210    31.3724    9.59843  100.68830    24.3200 1.9040e+01     13.044     0.7864 0.0000e+00
     14.000     8.6910    31.3732    9.62606  100.93033    24.3217 1.5627e+01     14.303     0.8006 0.0000e+00
     15.000     8.6806    31.3752    9.65356  101.21195    24.3266 1.2903e+01     15.383     0.8020 0.0000e+00
     16.000     8.6409    31.3919    9.66540  101.31092    24.3426 1.0746e+01     16.397     0.7932 0.0000e+00
     17.000     8.6334    31.4244    9.67858  101.45292    24.3715 8.9806e+00     17.429     0.8001 0.0000e+00
     18.000     8.6317    31.4457    9.68938  101.56945    24.3916 7.5759e+00     18.445     0.8671 0.0000e+00
     19.000     8.6079    31.4411    9.69854  101.65406    24.3873 6.4467e+00     19.431     0.8129 0.0000e+00
     20.000     8.5920    31.4552    9.70951  101.76141    24.4002 5.5635e+00     20.268     0.8528 0.0000e+00
     21.000     8.5786    31.4857    9.71742  101.84528    24.4273 4.8080e+00     21.138     0.8317 0.0000e+00
     22.000     8.5722    31.5018    9.72455  101.91301    24.4425 4.2190e+00     22.194     0.9261 0.0000e+00
     23.000     8.5574    31.5153    9.73481  102.02042    24.4553 3.7277e+00     23.293     0.9043 0.0000e+00
     24.000     8.5409    31.5141    9.73838  102.05704    24.4537 3.3289e+00     24.312     0.8264 0.0000e+00
     25.000     8.5309    31.5401    9.74019  102.07816    24.4776 3.0312e+00     25.226     0.8667 0.0000e+00
     26.000     8.5220    31.5571    9.74335  102.11403    24.4936 2.7758e+00     26.193     0.9122 0.0000e+00
     27.000     8.5177    31.5588    9.74708  102.15335    24.4952 2.5607e+00     27.057     0.9268 0.0000e+00
     28.000     8.5191    31.5728    9.75123  102.19475    24.5082 2.3663e+00     28.096     0.9112 0.0000e+00
     29.000     8.5208    31.5717    9.75344  102.21201    24.5074 2.2268e+00     29.127     0.9307 0.0000e+00
     30.000     8.5138    31.5693    9.75625  102.24016    24.5052 2.1073e+00     30.033     0.9151 0.0000e+00
     31.000     8.5080    31.5691    9.75613  102.23955    24.5049 2.0075e+00     31.139     0.9058 0.0000e+00
     32.000     8.5071    31.5814    9.77432  102.43166    24.5161 1.9298e+00     32.076     0.9662 0.0000e+00
     33.000     8.5053    31.5835    9.76675  102.35564    24.5181 1.8634e+00     33.189     0.9534 0.0000e+00
     34.000     8.5049    31.5855    9.76477  102.33575    24.5201 1.8061e+00     34.231     0.9475 0.0000e+00
     35.000     8.5061    31.5854    9.77240  102.41601    24.5200 1.7612e+00     35.294     0.9584 0.0000e+00
     36.000     8.5077    31.5848    9.77484  102.44052    24.5194 1.7249e+00     36.360     0.9425 0.0000e+00
     37.000     8.5067    31.5826    9.77207  102.40466    24.5173 1.6932e+00     37.526     0.9773 0.0000e+00
     38.000     8.5034    31.5834    9.77806  102.46837    24.5180 1.6699e+00     38.412     0.9474 0.0000e+00
     39.000     8.5023    31.5872    9.78313  102.51969    24.5215 1.6475e+00     39.411     0.9521 0.0000e+00
     40.000     8.5025    31.5882    9.79272  102.60300    24.5225 1.6301e+00     40.366     0.9647 0.0000e+00
     41.000     8.5036    31.5886    9.78277  102.49663    24.5229 1.6159e+00     41.315     0.9496 0.0000e+00
     42.000     8.5057    31.5874    9.78658  102.54508    24.5218 1.6039e+00     42.263     0.9248 0.0000e+00
     43.000     8.5061    31.5855    9.78570  102.52914    24.5201 1.5941e+00     43.263     0.9223 0.0000e+00
     44.000     8.5061    31.5846    9.78450  102.52042    24.5192 1.5862e+00     44.284     0.9518 0.0000e+00
     45.000     8.5054    31.5846    9.78739  102.55788    24.5192 1.5798e+00     45.446     0.9664 0.0000e+00
     46.000     8.5012    31.5845    9.79189  102.60695    24.5191 1.5740e+00     46.621     0.9639 0.0000e+00
     47.000     8.5019    31.5881    9.79567  102.63475    24.5225 1.5700e+00     47.555     0.9912 0.0000e+00
     48.000     8.5002    31.5888    9.79239  102.59513    24.5231 1.5661e+00     48.444     0.9642 0.0000e+00
     49.000     8.4915    31.5908    9.78930  102.56233    24.5248 1.5630e+00     49.351     0.9365 0.0000e+00
     50.000     8.4899    31.5987    9.78628  102.53294    24.5321 1.5604e+00     50.255     0.9616 0.0000e+00
     51.000     8.4925    31.6027    9.79823  102.66306    24.5359 1.5584e+00     51.342     0.9658 0.0000e+00
     52.000     8.4900    31.6001    9.79739  102.65233    24.5334 1.5563e+00     52.338     0.9802 0.0000e+00
     53.000     8.4949    31.6027    9.79888  102.66318    24.5358 1.5548e+00     53.292     0.9897 0.0000e+00
     54.000     8.4972    31.5992    9.79359  102.60785    24.5326 1.5536e+00     54.174     0.9826 0.0000e+00
     55.000     8.4954    31.5957    9.79133  102.58524    24.5293 1.5529e+00     55.037     0.9717 0.0000e+00
     56.000     8.4893    31.5950    9.79284  102.60186    24.5286 1.5523e+00     55.842     0.9980 0.0000e+00
     57.000     8.4867    31.6032    9.79830  102.66005    24.5362 1.5513e+00     56.548     0.9022 0.0000e+00
     58.000     8.4874    31.6076    9.79145  102.58909    24.5402 1.5509e+00     57.525     1.0148 0.0000e+00
     57.000     8.4882    31.6061    9.79527  102.65198    24.5388 1.5514e+00     56.836     1.0302 0.0000e+00
     56.000     8.4872    31.6046    9.78504  102.53942    24.5374 1.5519e+00     55.719     1.0741 0.0000e+00
     55.000     8.4849    31.6053    9.78986  102.58646    24.5380 1.5522e+00     55.133     1.0179 0.0000e+00
     54.000     8.4913    31.6083    9.79511  102.64092    24.5409 1.5538e+00     54.307     1.0455 0.0000e+00
     53.000     8.4944    31.6021    9.79522  102.66168    24.5353 1.5547e+00     53.463     1.0219 0.0000e+00
     52.000     8.4928    31.5974    9.79749  102.68569    24.5310 1.5564e+00     52.478     1.0357 0.0000e+00
     51.000     8.4992    31.5992    9.80090  102.72059    24.5326 1.5581e+00     51.553     0.9865 0.0000e+00
     50.000     8.5046    31.5915    9.80093  102.72045    24.5256 1.5603e+00     50.553     0.9868 0.0000e+00
     49.000     8.5042    31.5857    9.79763  102.68370    24.5203 1.5628e+00     49.556     1.0013 0.0000e+00
     48.000     8.5001    31.5869    9.79233  102.62852    24.5214 1.5663e+00     48.520     0.9725 0.0000e+00
     47.000     8.4985    31.5910    9.79633  102.67478    24.5251 1.5701e+00     47.539     1.0093 0.0000e+00
     46.000     8.5108    31.5922    9.79191  102.63602    24.5262 1.5756e+00     46.573     1.0191 0.0000e+00
     45.000     8.5108    31.5746    9.78997  102.64083    24.5104 1.5814e+00     45.550     0.9875 0.0000e+00
     44.000     8.5100    31.5779    9.78586  102.60857    24.5132 1.5887e+00     44.504     1.0122 0.0000e+00
     43.000     8.5103    31.5792    9.78725  102.62548    24.5144 1.5981e+00     43.431     0.9936 0.0000e+00
     42.000     8.5089    31.5793    9.79000  102.65043    24.5146 1.6093e+00     42.433     1.0896 0.0000e+00
     41.000     8.5123    31.5785    9.78112  102.55061    24.5139 1.6227e+00     41.431     1.2458 0.0000e+00
     40.000     8.5214    31.5741    9.78779  102.62690    24.5100 1.6403e+00     40.389     1.2314 0.0000e+00
     39.000     8.5391    31.5590    9.79804  102.74784    24.4962 1.6611e+00     39.292     1.2177 0.0000e+00
     38.000     8.5393    31.5465    9.78481  102.61448    24.4845 1.6872e+00     38.266     1.1578 0.0000e+00
     37.000     8.5395    31.5450    9.78374  102.64128    24.4832 1.7175e+00     37.239     1.1103 0.0000e+00
     36.000     8.5378    31.5461    9.78628  102.68840    24.4840 1.7523e+00     36.255     1.1308 0.0000e+00
     35.000     8.5338    31.5485    9.77990  102.62876    24.4863 1.7986e+00     35.218     1.1752 0.0000e+00
     34.000     8.5409    31.5525    9.77230  102.55687    24.4901 1.8550e+00     33.943     1.1512 0.0000e+00
     33.000     8.5461    31.5430    9.77376  102.59223    24.4814 1.9188e+00     32.869     1.1003 0.0000e+00
     32.000     8.5451    31.5393    9.77510  102.65593    24.4779 1.9952e+00     31.821     1.0758 0.0000e+00
     31.000     8.5586    31.5401    9.77301  102.64617    24.4786 2.0960e+00     30.850     1.0920 0.0000e+00
     30.000     8.5721    31.5321    9.76861  102.64737    24.4714 2.2188e+00     29.919     1.1064 0.0000e+00
     29.000     8.5802    31.5167    9.76403  102.61775    24.4573 2.3671e+00     29.003     1.1305 0.0000e+00
     28.000     8.5872    31.5034    9.76133  102.59884    24.4449 2.5425e+00     28.030     1.0772 0.0000e+00
     27.000     8.5892    31.4977    9.76202  102.61468    24.4396 2.7531e+00     27.032     1.1196 0.0000e+00
     26.000     8.5913    31.4931    9.75724  102.58993    24.4354 3.0336e+00     26.107     1.0664 0.0000e+00
     25.000     8.5936    31.4908    9.74876  102.51253    24.4333 3.3646e+00     25.122     1.0652 0.0000e+00
     24.000     8.5965    31.4886    9.74846  102.52792    24.4312 3.7648e+00     24.182     1.1026 0.0000e+00
     23.000     8.6020    31.4858    9.74076  102.41235    24.4288 4.2529e+00     23.222     1.0821 0.0000e+00
     22.000     8.6247    31.4803    9.74136  102.45408    24.4238 4.8948e+00     22.267     1.0526 0.0000e+00
     21.000     8.6449    31.4622    9.74096  102.47063    24.4076 5.6868e+00     21.327     1.0497 0.0000e+00
     20.000     8.6496    31.4373    9.73680  102.44561    24.3852 6.6662e+00     20.400     1.0273 0.0000e+00
     19.000     8.6781    31.4192    9.73484  102.42663    24.3681 7.9046e+00     19.517     1.0541 0.0000e+00
     18.000     8.6893    31.4029    9.72994  102.38426    24.3539 9.4665e+00     18.590     1.0537 0.0000e+00
     17.000     8.6953    31.3795    9.72910  102.37959    24.3323 1.1368e+01     17.674     0.9882 0.0000e+00
     16.000     8.7014    31.3688    9.72699  102.32865    24.3223 1.3613e+01     16.757     0.9921 0.0000e+00
     15.000     8.7205    31.3605    9.72967  102.36635    24.3149 1.6761e+01     15.760     1.0015 0.0000e+00
     14.000     8.7272    31.3374    9.73556  102.45472    24.2938 2.0841e+01     14.672     0.9772 0.0000e+00
     13.000     8.7377    31.3315    9.73362  102.43959    24.2880 2.5913e+01     13.578     1.0020 0.0000e+00
     12.000     8.7601    31.3101    9.73821  102.47607    24.2689 3.2658e+01     12.587     0.9734 0.0000e+00
     11.000     8.7641    31.2873    9.73940  102.47221    24.2477 4.1506e+01     11.558     0.9611 0.0000e+00
     10.000     8.7770    31.2867    9.72572  102.47483    24.2472 5.4930e+01      9.913     0.9650 0.0000e+00
      9.000     8.7982    31.2575    9.70867  102.51926    24.2202 7.0570e+01      8.615     0.9208 0.0000e+00
      8.000     8.8230    31.2469    9.63861  101.81333    24.2105 8.8658e+01      7.576     0.9457 0.0000e+00
      7.000     8.8476    31.2217 -9.990e-29 -9.990e-29    24.1873 1.1164e+02      6.698     0.9818 0.0000e+00
      6.000     8.8576    31.2004 -9.990e-29 -9.990e-29    24.1674 1.3928e+02      5.839     0.9515 0.0000e+00
      5.000     8.8731    31.1915 -9.990e-29 -9.990e-29    24.1591 1.7312e+02      4.983     0.9149 0.0000e+00
      4.000     8.8979    31.1817 -9.990e-29 -9.990e-29    24.1502 2.1304e+02      4.271     0.8411 0.0000e+00
      3.000     8.9387    31.1521 -9.990e-29 -9.990e-29    24.1229 2.5809e+02      3.474     0.8141 0.0000e+00
      2.000     8.9864    31.1164 -9.990e-29 -9.990e-29    24.0893 3.1965e+02      2.821     0.7334 0.0000e+00
      1.000     9.0042    31.0736 -9.990e-29 -9.990e-29    24.0483 6.5874e+02      2.257     0.6407 0.0000e+00
