* Sea-Bird SBE19plus Data File:
* FileName = C:\data\otf\2007\ctd-07152.hex
* Software Version 1.55
* Temperature SN =  5061
* Conductivity SN =  5061
* System UpLoad Time = Aug 15 2007 17:44:45
* ds
* SeacatPlus V 1.6a  SERIAL NO. 5061    15 Aug 2007  15:31:53
* vbatt = 10.9, vlith =  8.7, ioper =  61.6 ma, ipump =  57.5 ma, 
* iext01 =  95.2 ma
* iext23 =  58.1 ma
* 
* status = not logging
* number of scans to average = 1
* samples = 153039, free = 288466, casts = 154
* mode = profile, minimum cond freq = 3000, pump delay = 60 sec
* autorun = no, ignore magnetic switch = no
* battery type = alkaline, battery cutoff =  7.3 volts
* pressure sensor = strain gauge, range = 870.0
* SBE 38 = no, Gas Tension Device = no
* Ext Volt 0 = yes, Ext Volt 1 = yes, Ext Volt 2 = yes, Ext Volt 3 = yes
* echo commands = yes
* output format = raw HEX
* S>
* 
* SeacatPlus V 1.6a  SERIAL NO. 5061    15 Aug 2007  15:32:18
* temperature:  05-oct-06
*     TA0 = 1.254184e-03
*     TA1 = 2.596730e-04
*     TA2 = 5.165612e-07
*     TA3 = 1.318931e-07
*     TOFFSET = 0.000000e+00
* conductivity:  05-oct-06
*     G = -9.978144e-01
*     H = 1.555200e-01
*     I = -4.839108e-04
*     J = 6.121100e-05
*     CF0 = 2.539936e+03
*     CPCOR = -9.570000e-08
*     CTCOR = 3.250000e-06
*     CSLOPE = 1.000000e+00
* pressure S/N = 2362539, range = 870 psia:  24-aug-06
*     PA0 = 2.171091e-01
*     PA1 = 2.647085e-03
*     PA2 = 1.419397e-11
*     PTCA0 = 5.242437e+05
*     PTCA1 = 7.545345e+00
*     PTCA2 = -1.835354e-01
*     PTCB0 = 2.537125e+01
*     PTCB1 = -1.750000e-03
*     PTCB2 = 0.000000e+00
*     PTEMPA0 = -5.753989e+01
*     PTEMPA1 = 5.235813e+01
*     PTEMPA2 = -4.015521e-02
*     POFFSET = 0.000000e+00
* volt 0: offset = -4.682842e-02, slope = 1.249147e+00
* volt 1: offset = -4.695158e-02, slope = 1.248145e+00
* volt 2: offset = -4.685263e-02, slope = 1.248783e+00
* volt 3: offset = -4.690316e-02, slope = 1.249508e+00
*     EXTFREQSF = 1.000002e+00
* dh
* cast 152 01 Aug 2007 09:08:09 samples 149843 to 150595, avg = 1, stop = mag switch
* S> 
# nquan = 10
# nvalues = 87                          
# units = specified
# name 0 = depSM: Depth [salt water, m]
# name 1 = tv290C: Temperature [ITS-90, deg C]
# name 2 = sal00: Salinity [PSU]
# name 3 = sbeox0Mg/L: Oxygen, SBE 43 [mg/l]
# name 4 = sbeox0PS: Oxygen, SBE 43 [% saturation]
# name 5 = sigma-t00: Density [sigma-t, Kg/m^3 ]
# name 6 = par: PAR/Irradiance, Biospherical/Licor
# name 7 = prdM: Pressure, Strain Gauge [db]
# name 8 = flECO-AFL: Fluorescence, Wetlab ECO-AFL/FL [mg/m^3]
# name 9 = flag: flag
# span 0 =      1.000,     46.000       
# span 1 =     8.9979,     9.0980       
# span 2 =    31.6801,    31.7344       
# span 3 =    8.65739,    9.59979       
# span 4 =   91.82097,   96.88585       
# span 5 =    24.5075,    24.5559       
# span 6 = 1.6176e+00, 1.7172e+02       
# span 7 =      1.047,     46.117       
# span 8 =     1.1123,     1.5606       
# span 9 = 0.0000e+00, 0.0000e+00       
# interval = meters: 1                  
# start_time = Aug 01 2007 09:08:09
# bad_flag = -9.990e-29
# sensor 0 = Frequency 0  temperature, 5061, 05-Oct-06
# sensor 1 = Frequency 1  conductivity, 5061, 05-Oct-06, cpcor = -9.5700e-08
# sensor 2 = Pressure Number
# sensor 3 = Extrnl Volt  0  irradiance (PAR), primary, 4751, 08/10/06
# sensor 4 = Extrnl Volt  1  Oxygen, SBE, primary, 1081, 10/24/06
# sensor 5 = Extrnl Volt  2  WET Labs, ECO_AFL
# sensor 6 = Extrnl Volt  3  userpoly 0, 0627, 10/11/06
# datcnv_date = Oct 15 2007 14:49:54, 5.37e
# datcnv_in = I:\bob d\OTF_GEM\2007\ctd-07152.hex I:\Willette\OTF\CTD\5061.con
# datcnv_skipover = 0
# filter_date = Oct 15 2007 15:02:44, 5.37e
# filter_in = I:\Willette\OTF\CTD\2007\CTD Data\ctd-07152.cnv
# filter_low_pass_tc_A = 1.000
# filter_low_pass_tc_B = 0.150
# filter_low_pass_A_vars = prdM
# filter_low_pass_B_vars =
# loopedit_date = Oct 15 2007 15:07:01, 5.37e
# loopedit_in = I:\Willette\OTF\CTD\2007\CTD Data\ctd-07152.cnv
# loopedit_minVelocity = 0.250                                                                                            
# loopedit_surfaceSoak: minDepth = 5.0, maxDepth = 20, useDeckPress = 1                                                   
# loopedit_excl_bad_scans = yes
# alignctd_date = Oct 15 2007 15:14:26, 5.37e
# alignctd_in = I:\Willette\OTF\CTD\2007\CTD Data\ctd-07152.cnv
# alignctd_adv = tv290C 0.500, sbeox0Mg/L 4.000, sbeox0PS 4.000                                                                                                                                                                      
# binavg_date = Oct 15 2007 15:18:54, 5.37e
# binavg_in = I:\Willette\OTF\CTD\2007\CTD Data\ctd-07152.cnv
# binavg_bintype = meters
# binavg_binsize = 1
# binavg_excl_bad_scans = yes
# binavg_skipover = 0
# binavg_surface_bin = no, min = 0.000, max = 0.000, value = 0.000
# file_type = ascii
*END*
      5.000     9.0394    31.7344    8.69106   92.23209    24.5559 5.8231e+01      5.125     1.4674 0.0000e+00
      6.000     9.0384    31.7319    8.71803   92.51546    24.5540 5.0632e+01      6.168     1.4814 0.0000e+00
      7.000     9.0348    31.7099    8.73636   92.70813    24.5371 4.4716e+01      7.149     1.5038 0.0000e+00
      8.000     9.0310    31.7035    8.77571   93.12772    24.5326 3.8480e+01      8.069     1.4768 0.0000e+00
      9.000     9.0271    31.7003    8.80749   93.46400    24.5310 3.2913e+01      9.084     1.5251 0.0000e+00
     10.000     9.0274    31.6988    8.81152   93.51561    24.5299 2.8463e+01     10.169     1.4653 0.0000e+00
     11.000     9.0259    31.6925    8.79733   93.36845    24.5252 2.4637e+01     11.167     1.4227 0.0000e+00
     12.000     9.0309    31.6927    8.75405   92.90903    24.5252 2.1394e+01     12.044     1.3798 0.0000e+00
     13.000     9.0278    31.6855    8.70924   92.43418    24.5191 1.8400e+01     12.960     1.3642 0.0000e+00
     14.000     9.0295    31.6912    8.73608   92.72707    24.5240 1.5838e+01     13.993     1.3457 0.0000e+00
     15.000     9.0331    31.6939    8.69570   92.30407    24.5255 1.3707e+01     15.095     1.3185 0.0000e+00
     16.000     9.0345    31.6890    8.67476   92.05744    24.5212 1.1963e+01     16.176     1.2427 0.0000e+00
     17.000     9.0363    31.6906    8.72591   92.58666    24.5223 1.0480e+01     17.080     1.2013 0.0000e+00
     18.000     9.0430    31.6907    8.68310   92.12272    24.5216 9.1449e+00     18.263     1.1608 0.0000e+00
     19.000     9.0356    31.6801    8.67809   92.06194    24.5129 8.1253e+00     19.194     1.1123 0.0000e+00
     20.000     9.0235    31.6847    8.71580   92.46195    24.5188 7.1708e+00     20.122     1.1558 0.0000e+00
     21.000     9.0198    31.6904    8.71161   92.41626    24.5244 6.3116e+00     21.282     1.1852 0.0000e+00
     22.000     9.0148    31.6869    8.73472   92.66027    24.5222 5.6527e+00     22.236     1.1464 0.0000e+00
     23.000     9.0137    31.6910    8.74541   92.77018    24.5259 5.0342e+00     23.178     1.1898 0.0000e+00
     24.000     9.0140    31.6905    8.78167   93.14944    24.5255 4.5176e+00     24.207     1.1950 0.0000e+00
     25.000     9.0139    31.6894    8.78106   93.14356    24.5247 4.0630e+00     25.269     1.1999 0.0000e+00
     26.000     9.0132    31.6876    8.79705   93.31212    24.5233 3.6933e+00     26.286     1.1974 0.0000e+00
     27.000     9.0096    31.6873    8.79907   93.33253    24.5234 3.3747e+00     27.235     1.1901 0.0000e+00
     28.000     9.0094    31.6893    8.78186   93.14832    24.5253 3.0964e+00     28.270     1.2242 0.0000e+00
     29.000     9.0099    31.6880    8.78086   93.13474    24.5242 2.8651e+00     29.264     1.1891 0.0000e+00
     30.000     9.0087    31.6882    8.82579   93.60861    24.5244 2.6676e+00     30.228     1.1768 0.0000e+00
     31.000     9.0081    31.6891    8.81107   93.45346    24.5253 2.5475e+00     31.305     1.1791 0.0000e+00
     32.000     9.0073    31.6874    8.65739   91.82097    24.5241 2.3598e+00     32.434     1.1642 0.0000e+00
     33.000     9.0059    31.6861    8.65766   91.82371    24.5232 2.2446e+00     33.243     1.1890 0.0000e+00
     34.000     9.0048    31.6900    8.71295   92.40895    24.5265 2.1313e+00     34.229     1.1883 0.0000e+00
     35.000     9.0051    31.6881    8.70773   92.35607    24.5250 2.0397e+00     35.446     1.2004 0.0000e+00
     36.000     9.0047    31.6875    8.67994   92.05978    24.5246 1.9674e+00     36.372     1.2070 0.0000e+00
     37.000     9.0040    31.6875    8.71279   92.40560    24.5247 1.9044e+00     37.330     1.2334 0.0000e+00
     38.000     9.0040    31.6885    8.76888   92.99656    24.5255 1.8504e+00     38.333     1.2518 0.0000e+00
     39.000     9.0054    31.6878    8.86029   93.96959    24.5248 1.8057e+00     39.427     1.2601 0.0000e+00
     40.000     9.0040    31.6867    8.93584   94.76530    24.5240 1.7681e+00     40.413     1.2428 0.0000e+00
     41.000     9.0025    31.6864    8.96961   95.12315    24.5239 1.7360e+00     41.316     1.2255 0.0000e+00
     42.000     9.0017    31.6875    9.01184   95.56999    24.5251 1.7060e+00     42.420     1.2428 0.0000e+00
     43.000     9.0021    31.6893    9.03686   95.83433    24.5263 1.6837e+00     43.439     1.2621 0.0000e+00
     44.000     8.9994    31.6882    9.05650   96.04423    24.5259 1.6638e+00     44.322     1.2113 0.0000e+00
     45.000     8.9998    31.6894    9.06922   96.17910    24.5268 1.6459e+00     45.164     1.2465 0.0000e+00
     46.000     8.9984    31.6890    9.07212   96.20927    24.5266 1.6176e+00     46.117     1.2011 0.0000e+00
     45.000     8.9982    31.6892    9.08642   96.36633    24.5269 1.6398e+00     45.210     1.2538 0.0000e+00
     44.000     8.9992    31.6895    9.10130   96.53410    24.5271 1.6586e+00     44.386     1.2680 0.0000e+00
     43.000     9.0036    31.6897    9.10818   96.61119    24.5267 1.6762e+00     43.412     1.2438 0.0000e+00
     42.000     9.0086    31.6883    9.11329   96.65781    24.5247 1.6986e+00     42.419     1.2867 0.0000e+00
     41.000     9.0082    31.6875    9.11893   96.70181    24.5240 1.7249e+00     41.337     1.3028 0.0000e+00
     40.000     9.0011    31.6870    9.11209   96.62983    24.5245 1.7551e+00     40.394     1.3316 0.0000e+00
     39.000     8.9982    31.6891    9.11353   96.64628    24.5269 1.7908e+00     39.399     1.2961 0.0000e+00
     38.000     8.9979    31.6892    9.12171   96.74153    24.5270 1.8317e+00     38.349     1.3404 0.0000e+00
     37.000     9.0008    31.6894    9.11839   96.70723    24.5268 1.8805e+00     37.353     1.3374 0.0000e+00
     36.000     9.0034    31.6883    9.11827   96.70666    24.5253 1.9352e+00     36.360     1.3250 0.0000e+00
     35.000     9.0030    31.6882    9.11416   96.67314    24.5254 2.0041e+00     35.294     1.3248 0.0000e+00
     34.000     9.0061    31.6889    9.11916   96.72820    24.5257 2.0830e+00     34.359     1.3275 0.0000e+00
     33.000     9.0085    31.6877    9.11604   96.69888    24.5242 2.1719e+00     33.263     1.3092 0.0000e+00
     32.000     9.0101    31.6874    9.11680   96.70784    24.5237 2.2767e+00     32.318     1.3456 0.0000e+00
     31.000     9.0112    31.6874    9.11656   96.70404    24.5235 2.3992e+00     31.256     1.4820 0.0000e+00
     30.000     9.0112    31.6875    9.11551   96.69357    24.5235 2.5378e+00     30.286     1.3798 0.0000e+00
     29.000     9.0106    31.6874    9.11644   96.70262    24.5236 2.7074e+00     29.245     1.2817 0.0000e+00
     28.000     9.0112    31.6875    9.10711   96.60528    24.5236 2.8941e+00     28.327     1.2523 0.0000e+00
     27.000     9.0105    31.6873    9.11813   96.72819    24.5235 3.1296e+00     27.239     1.5130 0.0000e+00
     26.000     9.0123    31.6878    9.12034   96.75008    24.5238 3.3921e+00     26.321     1.3614 0.0000e+00
     25.000     9.0146    31.6871    9.12200   96.75811    24.5228 3.7057e+00     25.209     1.3478 0.0000e+00
     24.000     9.0121    31.6863    9.12326   96.76882    24.5223 4.0760e+00     24.204     1.3629 0.0000e+00
     23.000     9.0087    31.6872    9.11942   96.72408    24.5236 4.5151e+00     23.231     1.3756 0.0000e+00
     22.000     9.0076    31.6873    9.12232   96.75281    24.5239 5.0346e+00     22.188     1.3758 0.0000e+00
     21.000     9.0056    31.6878    9.12480   96.78744    24.5246 5.6422e+00     21.205     1.3899 0.0000e+00
     20.000     9.0047    31.6880    9.12626   96.81050    24.5250 6.3497e+00     20.206     1.3512 0.0000e+00
     19.000     9.0089    31.6891    9.12776   96.83416    24.5255 7.1689e+00     19.200     1.3335 0.0000e+00
     18.000     9.0131    31.6875    9.12659   96.82401    24.5235 8.1747e+00     18.145     1.3320 0.0000e+00
     17.000     9.0165    31.6873    9.12610   96.82079    24.5227 9.2768e+00     17.162     1.3068 0.0000e+00
     16.000     9.0172    31.6866    9.12692   96.83382    24.5220 1.0557e+01     16.161     1.3915 0.0000e+00
     15.000     9.0183    31.6867    9.12331   96.80037    24.5219 1.2065e+01     15.137     1.3043 0.0000e+00
     14.000     9.0203    31.6867    9.12249   96.79864    24.5217 1.3799e+01     14.138     1.2822 0.0000e+00
     13.000     9.0225    31.6860    9.12728   96.84973    24.5208 1.5818e+01     13.117     1.3036 0.0000e+00
     12.000     9.0260    31.6857    9.13131   96.88585    24.5201 1.8284e+01     12.128     1.2588 0.0000e+00
     11.000     9.0258    31.6845    9.12110   96.77830    24.5189 2.2194e+01     11.041     1.2000 0.0000e+00
     10.000     9.0229    31.6851    9.11978   96.76735    24.5199 2.5072e+01     10.148     1.2115 0.0000e+00
      9.000     9.0233    31.6859    9.11987   96.77487    24.5205 2.8734e+01      9.055     1.2127 0.0000e+00
      8.000     9.0249    31.6857    9.12385   96.82617    24.5201 3.3099e+01      8.063     1.2343 0.0000e+00
      7.000     9.0280    31.6860    9.12550   96.84747    24.5200 3.8267e+01      7.083     1.2375 0.0000e+00
      6.000     9.0322    31.6856    9.11873   96.77012    24.5191 4.4241e+01      6.069     1.2498 0.0000e+00
      5.000     9.0347    31.6837    9.09914   96.58115    24.5170 5.0719e+01      5.011     1.4114 0.0000e+00
      4.000     9.0317    31.6846    9.10500   96.68290    24.5182 5.8602e+01      4.070     1.5606 0.0000e+00
      3.000     9.0418    31.6862    9.11082   96.82165    24.5184 6.8496e+01      3.005     1.5203 0.0000e+00
      2.000     9.0626    31.6890    9.09625   96.67883    24.5182 8.3557e+01      2.061     1.4760 0.0000e+00
      1.000     9.0980    31.6830    9.59979   95.43772    24.5075 1.7172e+02      1.047     1.4886 0.0000e+00
