* Sea-Bird SBE19plus Data File:
* FileName = C:\data\otf\2007\ctd-07017.hex
* Software Version 1.55
* Temperature SN =  5061
* Conductivity SN =  5061
* System UpLoad Time = Aug 15 2007 15:57:28
* ds
* SeacatPlus V 1.6a  SERIAL NO. 5061    15 Aug 2007  15:31:53
* vbatt = 10.9, vlith =  8.7, ioper =  61.6 ma, ipump =  57.5 ma, 
* iext01 =  95.2 ma
* iext23 =  58.1 ma
* 
* status = not logging
* number of scans to average = 1
* samples = 153039, free = 288466, casts = 154
* mode = profile, minimum cond freq = 3000, pump delay = 60 sec
* autorun = no, ignore magnetic switch = no
* battery type = alkaline, battery cutoff =  7.3 volts
* pressure sensor = strain gauge, range = 870.0
* SBE 38 = no, Gas Tension Device = no
* Ext Volt 0 = yes, Ext Volt 1 = yes, Ext Volt 2 = yes, Ext Volt 3 = yes
* echo commands = yes
* output format = raw HEX
* S>
* 
* SeacatPlus V 1.6a  SERIAL NO. 5061    15 Aug 2007  15:32:18
* temperature:  05-oct-06
*     TA0 = 1.254184e-03
*     TA1 = 2.596730e-04
*     TA2 = 5.165612e-07
*     TA3 = 1.318931e-07
*     TOFFSET = 0.000000e+00
* conductivity:  05-oct-06
*     G = -9.978144e-01
*     H = 1.555200e-01
*     I = -4.839108e-04
*     J = 6.121100e-05
*     CF0 = 2.539936e+03
*     CPCOR = -9.570000e-08
*     CTCOR = 3.250000e-06
*     CSLOPE = 1.000000e+00
* pressure S/N = 2362539, range = 870 psia:  24-aug-06
*     PA0 = 2.171091e-01
*     PA1 = 2.647085e-03
*     PA2 = 1.419397e-11
*     PTCA0 = 5.242437e+05
*     PTCA1 = 7.545345e+00
*     PTCA2 = -1.835354e-01
*     PTCB0 = 2.537125e+01
*     PTCB1 = -1.750000e-03
*     PTCB2 = 0.000000e+00
*     PTEMPA0 = -5.753989e+01
*     PTEMPA1 = 5.235813e+01
*     PTEMPA2 = -4.015521e-02
*     POFFSET = 0.000000e+00
* volt 0: offset = -4.682842e-02, slope = 1.249147e+00
* volt 1: offset = -4.695158e-02, slope = 1.248145e+00
* volt 2: offset = -4.685263e-02, slope = 1.248783e+00
* volt 3: offset = -4.690316e-02, slope = 1.249508e+00
*     EXTFREQSF = 1.000002e+00
* dh
* cast  17 05 Jul 2007 10:29:02 samples 30220 to 30469, avg = 4, stop = mag switch
* S> 
# nquan = 10
# nvalues = 118                         
# units = specified
# name 0 = depSM: Depth [salt water, m]
# name 1 = tv290C: Temperature [ITS-90, deg C]
# name 2 = sal00: Salinity [PSU]
# name 3 = sbeox0Mg/L: Oxygen, SBE 43 [mg/l]
# name 4 = sbeox0PS: Oxygen, SBE 43 [% saturation]
# name 5 = sigma-t00: Density [sigma-t, Kg/m^3 ]
# name 6 = par: PAR/Irradiance, Biospherical/Licor
# name 7 = prdM: Pressure, Strain Gauge [db]
# name 8 = flECO-AFL: Fluorescence, Wetlab ECO-AFL/FL [mg/m^3]
# name 9 = flag: flag
# span 0 =      1.000,     61.000       
# span 1 =     7.6474,     7.7984       
# span 2 =    31.6149,    31.7986       
# span 3 =    9.44607,   11.86714       
# span 4 =   97.26820,  109.25121       
# span 5 =    24.6466,    24.8102       
# span 6 = 1.5584e+00, 4.5264e+02       
# span 7 =      1.884,     60.690       
# span 8 =     1.0086,     1.6052       
# span 9 = 0.0000e+00, 0.0000e+00       
# interval = meters: 1                  
# start_time = Jul 05 2007 10:29:02
# bad_flag = -9.990e-29
# sensor 0 = Frequency 0  temperature, 5061, 05-Oct-06
# sensor 1 = Frequency 1  conductivity, 5061, 05-Oct-06, cpcor = -9.5700e-08
# sensor 2 = Pressure Number
# sensor 3 = Extrnl Volt  0  irradiance (PAR), primary, 4751, 08/10/06
# sensor 4 = Extrnl Volt  1  Oxygen, SBE, primary, 1081, 10/24/06
# sensor 5 = Extrnl Volt  2  WET Labs, ECO_AFL
# sensor 6 = Extrnl Volt  3  userpoly 0, 0627, 10/11/06
# datcnv_date = Oct 15 2007 14:49:43, 5.37e
# datcnv_in = I:\bob d\OTF_GEM\2007\ctd-07017.hex I:\Willette\OTF\CTD\5061.con
# datcnv_skipover = 0
# filter_date = Oct 15 2007 15:02:22, 5.37e
# filter_in = I:\Willette\OTF\CTD\2007\CTD Data\ctd-07017.cnv
# filter_low_pass_tc_A = 1.000
# filter_low_pass_tc_B = 0.150
# filter_low_pass_A_vars = prdM
# filter_low_pass_B_vars =
# loopedit_date = Oct 15 2007 15:06:44, 5.37e
# loopedit_in = I:\Willette\OTF\CTD\2007\CTD Data\ctd-07017.cnv
# loopedit_minVelocity = 0.250                                                                                            
# loopedit_surfaceSoak: minDepth = 5.0, maxDepth = 20, useDeckPress = 1                                                   
# loopedit_excl_bad_scans = yes
# alignctd_date = Oct 15 2007 15:14:13, 5.37e
# alignctd_in = I:\Willette\OTF\CTD\2007\CTD Data\ctd-07017.cnv
# alignctd_adv = tv290C 0.500, sbeox0Mg/L 4.000, sbeox0PS 4.000                                                                                                                                                                      
# binavg_date = Oct 15 2007 15:18:42, 5.37e
# binavg_in = I:\Willette\OTF\CTD\2007\CTD Data\ctd-07017.cnv
# binavg_bintype = meters
# binavg_binsize = 1
# binavg_excl_bad_scans = yes
# binavg_skipover = 0
# binavg_surface_bin = no, min = 0.000, max = 0.000, value = 0.000
# file_type = ascii
*END*
      4.000     7.7984    31.6502    9.44607   97.26820    24.6750 1.0309e+02      4.206     1.1962 0.0000e+00
      5.000     7.7948    31.6257    9.46441   97.45156    24.6532 9.4580e+01      5.314     1.1962 0.0000e+00
      6.000     7.7788    31.6438    9.48842   97.68669    24.6682 8.0428e+01      6.590     1.2599 0.0000e+00
      7.000     7.7686    31.6243    9.52736   98.07242    24.6550 6.9911e+01      7.919     1.4192 0.0000e+00
      8.000     7.7521    31.6185    9.57338   98.54130    24.6510 5.9313e+01      9.239     1.4008 0.0000e+00
      9.000     7.7432    31.6206    9.57503   98.55620    24.6546 5.1631e+01      9.868     1.5154 0.0000e+00
     10.000     7.7352    31.6246    9.56510   98.46752    24.6587 4.3149e+01     10.890     1.3944 0.0000e+00
     11.000     7.7324    31.6289    9.55862   98.39283    24.6635 3.7166e+01     11.599     1.3651 0.0000e+00
     12.000     7.7248    31.6375    9.48794   97.65405    24.6713 3.1485e+01     12.584     1.3353 0.0000e+00
     13.000     7.7230    31.6369    9.56437   98.44061    24.6713 2.7104e+01     13.435     1.3663 0.0000e+00
     14.000     7.7191    31.6455    9.66596   99.48500    24.6789 2.3048e+01     14.293     1.3272 0.0000e+00
     15.000     7.7148    31.6495    9.75311  100.38080    24.6825 1.9599e+01     15.313     1.2352 0.0000e+00
     16.000     7.7129    31.6550    9.80088  100.87176    24.6873 1.6867e+01     16.221     1.2698 0.0000e+00
     17.000     7.7106    31.6622    9.84422  101.31846    24.6936 1.4462e+01     17.147     1.3162 0.0000e+00
     18.000     7.7065    31.6662    9.87338  101.61763    24.6971 1.2430e+01     18.122     1.2696 0.0000e+00
     19.000 -9.990e-29 -9.990e-29 -9.990e-29 -9.990e-29 -9.990e-29 -9.990e-29 -9.990e-29 -9.990e-29 -9.990e-29
     20.000     7.6976    31.6759    9.89617  101.84995    24.7055 9.2328e+00     19.959     1.2969 0.0000e+00
     21.000 -9.990e-29 -9.990e-29 -9.990e-29 -9.990e-29 -9.990e-29 -9.990e-29 -9.990e-29 -9.990e-29 -9.990e-29
     22.000     7.6908    31.6848    9.91236  102.01544    24.7135 7.4445e+00     21.441     1.4151 0.0000e+00
     23.000     7.6878    31.6947    9.93941  102.29409    24.7223 6.0621e+00     22.840     1.2460 0.0000e+00
     24.000     7.6839    31.6999    9.93247  102.22221    24.7268 5.3590e+00     23.667     1.2251 0.0000e+00
     25.000     7.6891    31.7031    9.96183  102.52360    24.7295 4.7914e+00     24.523     1.2572 0.0000e+00
     26.000     7.6837    31.7107    9.95909  102.49542    24.7356 4.3009e+00     25.351     1.2833 0.0000e+00
     27.000     7.6796    31.7149    9.96797  102.58672    24.7390 3.8802e+00     26.349     1.3100 0.0000e+00
     28.000     7.6756    31.7234    9.99324  102.84679    24.7469 3.4725e+00     27.817     1.2852 0.0000e+00
     29.000     7.6744    31.7301    9.98570  102.76880    24.7525 3.1843e+00     28.995     1.3235 0.0000e+00
     30.000     7.6716    31.7339    9.98913  102.80500    24.7556 2.9400e+00     30.134     1.3511 0.0000e+00
     31.000     7.6702    31.7397    9.98580  102.76911    24.7605 2.7295e+00     30.973     1.3427 0.0000e+00
     32.000     7.6694    31.7444    9.99693  102.88279    24.7645 2.5421e+00     32.043     1.2539 0.0000e+00
     33.000     7.6687    31.7461   10.01121  103.02941    24.7659 2.3932e+00     33.232     1.3288 0.0000e+00
     34.000     7.6682    31.7476    9.99785  102.89259    24.7672 2.2661e+00     34.421     1.2630 0.0000e+00
     35.000     7.6674    31.7484    9.99880  102.90242    24.7679 2.1651e+00     35.552     1.2727 0.0000e+00
     36.000     7.6670    31.7500    9.98094  102.71802    24.7691 2.0767e+00     36.291     1.2644 0.0000e+00
     37.000     7.6666    31.7524   10.01630  103.07967    24.7712 1.9897e+00     37.206     1.3313 0.0000e+00
     38.000     7.6624    31.7550   10.00014  102.90518    24.7733 1.9232e+00     38.242     1.4904 0.0000e+00
     39.000     7.6608    31.7719   10.00123  102.91312    24.7873 1.8621e+00     39.575     1.2135 0.0000e+00
     40.000     7.6609    31.7713    9.99365  102.83566    24.7868 1.8157e+00     40.654     1.2293 0.0000e+00
     41.000     7.6610    31.7714    9.98718  102.76847    24.7870 1.7797e+00     41.774     1.3052 0.0000e+00
     42.000     7.6608    31.7716   10.00550  102.95703    24.7871 1.7454e+00     42.627     1.2753 0.0000e+00
     43.000     7.6599    31.7720   10.00714  102.97431    24.7875 1.7172e+00     43.596     1.2219 0.0000e+00
     44.000     7.6598    31.7740    9.98263  102.72245    24.7891 1.6918e+00     44.485     1.2456 0.0000e+00
     45.000     7.6552    31.7757   10.02275  103.13452    24.7905 1.6687e+00     45.526     1.1399 0.0000e+00
     46.000     7.6499    31.7819    9.95500  102.43727    24.7955 1.6521e+00     46.472     1.1750 0.0000e+00
     47.000     7.6483    31.7926   10.03051  103.21474    24.8049 1.6359e+00     47.401     1.0937 0.0000e+00
     48.000     7.6485    31.7971    9.95084  102.39686    24.8089 1.6246e+00     48.601     1.6052 0.0000e+00
     49.000     7.6483    31.7965   10.00765  102.98046    24.8085 1.6128e+00     49.323     1.1014 0.0000e+00
     50.000     7.6474    31.7961   10.00206  102.92272    24.8080 1.6039e+00     50.540     1.0086 0.0000e+00
     51.000     7.6477    31.7979   10.01129  103.01740    24.8096 1.5957e+00     51.349     1.1322 0.0000e+00
     52.000     7.6478    31.7977   10.01059  103.01016    24.8094 1.5887e+00     52.438     1.2596 0.0000e+00
     53.000     7.6480    31.7977    9.98669  102.76487    24.8095 1.5829e+00     53.387     1.2695 0.0000e+00
     54.000     7.6477    31.7979   10.01040  103.00916    24.8095 1.5778e+00     54.363     1.2289 0.0000e+00
     55.000     7.6474    31.7980    9.95968  102.48770    24.8097 1.5735e+00     55.284     1.1719 0.0000e+00
     56.000     7.6478    31.7986   10.02188  103.12731    24.8102 1.5700e+00     56.155     1.1579 0.0000e+00
     57.000     7.6491    31.7983    9.96153  102.50780    24.8099 1.5687e+00     57.523     1.2008 0.0000e+00
     58.000     7.6482    31.7973   10.00788  102.98399    24.8091 1.5664e+00     58.141     1.1380 0.0000e+00
     59.000     7.6480    31.7980    9.98967  102.79701    24.8096 1.5607e+00     59.194     1.0775 0.0000e+00
     60.000     7.6480    31.7979    9.99653  102.86779    24.8095 1.5596e+00     59.973     1.0624 0.0000e+00
     61.000     7.6486    31.7976   10.00257  102.92953    24.8092 1.5584e+00     60.690     1.1663 0.0000e+00
     60.000     7.6493    31.7966   10.01402  103.04705    24.8083 1.5602e+00     59.990     1.2421 0.0000e+00
     59.000     7.6491    31.7965   10.01492  103.05634    24.8083 1.5622e+00     59.191     1.1712 0.0000e+00
     58.000     7.6487    31.7971   10.01247  103.03223    24.8087 1.5640e+00     58.343     1.1723 0.0000e+00
     57.000     7.6487    31.7980   10.02163  103.12701    24.8095 1.5666e+00     57.371     1.1386 0.0000e+00
     56.000     7.6494    31.7968   10.02293  103.14317    24.8086 1.5697e+00     56.439     1.1439 0.0000e+00
     55.000     7.6493    31.7959   10.01724  103.08787    24.8078 1.5731e+00     55.466     1.1102 0.0000e+00
     54.000     7.6495    31.7952   10.02329  103.15073    24.8072 1.5775e+00     54.474     1.2331 0.0000e+00
     53.000     7.6496    31.7958   10.03488  103.27189    24.8077 1.5821e+00     53.513     1.1435 0.0000e+00
     52.000     7.6491    31.7955   10.03350  103.25811    24.8075 1.5885e+00     52.552     1.1991 0.0000e+00
     51.000     7.6500    31.7957   10.03789  103.30379    24.8077 1.5955e+00     51.513     1.1552 0.0000e+00
     50.000     7.6507    31.7941   10.03506  103.27403    24.8063 1.6040e+00     50.359     1.0831 0.0000e+00
     49.000     7.6523    31.7935   10.04053  103.33044    24.8057 1.6137e+00     49.523     1.1190 0.0000e+00
     48.000     7.6559    31.7890   10.04118  103.33650    24.8020 1.6242e+00     48.247     1.4668 0.0000e+00
     47.000     7.6566    31.7852   10.03863  103.31072    24.7987 1.6385e+00     47.465     1.1689 0.0000e+00
     46.000     7.6590    31.7814   10.04418  103.36740    24.7954 1.6540e+00     46.387     1.2060 0.0000e+00
     45.000     7.6603    31.7761   10.03940  103.31887    24.7909 1.6720e+00     45.378     1.1911 0.0000e+00
     44.000     7.6609    31.7725   10.05415  103.47137    24.7879 1.6944e+00     44.478     1.1653 0.0000e+00
     43.000     7.6609    31.7700   10.05233  103.45399    24.7859 1.7197e+00     43.381     1.4314 0.0000e+00
     42.000     7.6614    31.7703   10.06775  103.61220    24.7860 1.7490e+00     42.379     1.1846 0.0000e+00
     41.000     7.6618    31.7681   10.07644  103.70174    24.7843 1.7862e+00     41.367     1.2225 0.0000e+00
     40.000     7.6624    31.7669   10.07987  103.73756    24.7833 1.8281e+00     40.399     1.2030 0.0000e+00
     39.000     7.6628    31.7644   10.07640  103.70223    24.7813 1.8793e+00     39.324     1.2277 0.0000e+00
     38.000     7.6637    31.7632   10.08774  103.82003    24.7802 1.9363e+00     38.397     1.3321 0.0000e+00
     37.000     7.6659    31.7594   10.07656  103.70746    24.7772 2.0087e+00     37.334     1.2980 0.0000e+00
     36.000     7.6671    31.7538   10.08302  103.77371    24.7725 2.0920e+00     36.344     1.2781 0.0000e+00
     35.000     7.6675    31.7504   10.09536  103.90061    24.7696 2.1874e+00     35.433     1.3596 0.0000e+00
     34.000     7.6678    31.7486   10.10215  103.97075    24.7681 2.3048e+00     34.354     1.4460 0.0000e+00
     33.000     7.6686    31.7478   10.10266  103.97687    24.7674 2.4462e+00     33.351     1.3285 0.0000e+00
     32.000     7.6694    31.7459   10.08102  103.75698    24.7659 2.6108e+00     32.310     1.2987 0.0000e+00
     31.000     7.6716    31.7433   10.08214  103.77199    24.7637 2.7988e+00     31.256     1.3824 0.0000e+00
     30.000     7.6740    31.7368   10.07427  103.69497    24.7584 3.0307e+00     30.257     1.2410 0.0000e+00
     29.000     7.6748    31.7318   10.08795  103.83932    24.7542 3.3033e+00     29.397     1.3178 0.0000e+00
     28.000     7.6756    31.7286   10.08159  103.78235    24.7515 3.6444e+00     28.124     1.3524 0.0000e+00
     27.000     7.6765    31.7274   10.09720  103.94843    24.7504 4.0089e+00     27.306     1.2769 0.0000e+00
     26.000     7.6788    31.7235   10.12716  104.26260    24.7472 4.4410e+00     26.175     1.1960 0.0000e+00
     25.000     7.6826    31.7164   10.12863  104.28132    24.7414 5.0089e+00     25.252     1.2977 0.0000e+00
     24.000     7.6857    31.7038   10.13346  104.33709    24.7308 5.7066e+00     23.978     1.3275 0.0000e+00
     23.000     7.6884    31.7005   10.15184  104.53201    24.7280 6.4773e+00     23.189     1.3118 0.0000e+00
     22.000     7.6914    31.6936   10.18568  104.88707    24.7219 7.3326e+00     21.946     1.2844 0.0000e+00
     21.000     7.6938    31.6918   10.17594  104.79205    24.7204 8.4425e+00     21.312     1.3743 0.0000e+00
     20.000     7.6989    31.6862   10.20739  105.12350    24.7155 9.8141e+00     20.095     1.5027 0.0000e+00
     19.000     7.7025    31.6806   10.22089  105.26690    24.7105 1.1412e+01     19.172     1.3601 0.0000e+00
     18.000     7.7060    31.6755   10.24057  105.47496    24.7059 1.3226e+01     18.258     1.2742 0.0000e+00
     17.000     7.7088    31.6695   10.25651  105.65123    24.7007 1.5423e+01     17.144     1.2695 0.0000e+00
     16.000     7.7125    31.6657   10.28606  105.99376    24.6974 1.8140e+01     16.185     1.3872 0.0000e+00
     15.000     7.7180    31.6600   10.30106  106.16975    24.6925 2.1257e+01     15.150     1.3492 0.0000e+00
     14.000     7.7214    31.6493   10.33766  106.56099    24.6832 2.5125e+01     14.044     1.2118 0.0000e+00
     13.000     7.7259    31.6460   10.38999  107.11499    24.6801 2.9600e+01     13.120     1.2202 0.0000e+00
     12.000     7.7297    31.6404   10.44021  107.64352    24.6751 3.4945e+01     12.046     1.2397 0.0000e+00
     11.000     7.7318    31.6360   10.49205  108.18198    24.6711 4.1050e+01     11.080     1.1931 0.0000e+00
     10.000     7.7362    31.6338   10.56052  108.88849    24.6690 4.8789e+01     10.045     1.2965 0.0000e+00
      9.000     7.7404    31.6301   10.59528  109.25121    24.6656 5.7935e+01      9.130     1.2426 0.0000e+00
      8.000     7.7576    31.6270   10.45900  107.85052    24.6626 6.8305e+01      8.032     1.2725 0.0000e+00
      7.000     7.7674    31.6270   10.38295  107.06798    24.6612 8.0663e+01      7.206     1.3272 0.0000e+00
      6.000     7.7719    31.6197   10.50601  105.38050    24.6533 9.5411e+01      6.200     1.4345 0.0000e+00
      5.000     7.7774    31.6186   11.62856  104.34019    24.6516 1.1265e+02      5.154     1.4242 0.0000e+00
      4.000     7.7844    31.6180   11.86714  103.89062    24.6505 1.3201e+02      4.340     1.2604 0.0000e+00
      3.000     7.7861    31.6160 -9.990e-29 -9.990e-29    24.6478 1.5111e+02      3.402     1.1692 0.0000e+00
      2.000     7.7866    31.6152 -9.990e-29 -9.990e-29    24.6469 1.8357e+02      2.573     1.1008 0.0000e+00
      1.000     7.7881    31.6149 -9.990e-29 -9.990e-29    24.6466 4.5264e+02      1.884     1.0338 0.0000e+00
