* Sea-Bird SBE19plus Data File:
* FileName = C:\data\otf\2007\ctd-07036.hex
* Software Version 1.55
* Temperature SN =  5061
* Conductivity SN =  5061
* System UpLoad Time = Aug 15 2007 16:06:03
* ds
* SeacatPlus V 1.6a  SERIAL NO. 5061    15 Aug 2007  15:31:53
* vbatt = 10.9, vlith =  8.7, ioper =  61.6 ma, ipump =  57.5 ma, 
* iext01 =  95.2 ma
* iext23 =  58.1 ma
* 
* status = not logging
* number of scans to average = 1
* samples = 153039, free = 288466, casts = 154
* mode = profile, minimum cond freq = 3000, pump delay = 60 sec
* autorun = no, ignore magnetic switch = no
* battery type = alkaline, battery cutoff =  7.3 volts
* pressure sensor = strain gauge, range = 870.0
* SBE 38 = no, Gas Tension Device = no
* Ext Volt 0 = yes, Ext Volt 1 = yes, Ext Volt 2 = yes, Ext Volt 3 = yes
* echo commands = yes
* output format = raw HEX
* S>
* 
* SeacatPlus V 1.6a  SERIAL NO. 5061    15 Aug 2007  15:32:18
* temperature:  05-oct-06
*     TA0 = 1.254184e-03
*     TA1 = 2.596730e-04
*     TA2 = 5.165612e-07
*     TA3 = 1.318931e-07
*     TOFFSET = 0.000000e+00
* conductivity:  05-oct-06
*     G = -9.978144e-01
*     H = 1.555200e-01
*     I = -4.839108e-04
*     J = 6.121100e-05
*     CF0 = 2.539936e+03
*     CPCOR = -9.570000e-08
*     CTCOR = 3.250000e-06
*     CSLOPE = 1.000000e+00
* pressure S/N = 2362539, range = 870 psia:  24-aug-06
*     PA0 = 2.171091e-01
*     PA1 = 2.647085e-03
*     PA2 = 1.419397e-11
*     PTCA0 = 5.242437e+05
*     PTCA1 = 7.545345e+00
*     PTCA2 = -1.835354e-01
*     PTCB0 = 2.537125e+01
*     PTCB1 = -1.750000e-03
*     PTCB2 = 0.000000e+00
*     PTEMPA0 = -5.753989e+01
*     PTEMPA1 = 5.235813e+01
*     PTEMPA2 = -4.015521e-02
*     POFFSET = 0.000000e+00
* volt 0: offset = -4.682842e-02, slope = 1.249147e+00
* volt 1: offset = -4.695158e-02, slope = 1.248145e+00
* volt 2: offset = -4.685263e-02, slope = 1.248783e+00
* volt 3: offset = -4.690316e-02, slope = 1.249508e+00
*     EXTFREQSF = 1.000002e+00
* dh
* cast  36 08 Jul 2007 08:24:31 samples 38847 to 39136, avg = 4, stop = mag switch
* S> 
# nquan = 10
# nvalues = 150                         
# units = specified
# name 0 = depSM: Depth [salt water, m]
# name 1 = tv290C: Temperature [ITS-90, deg C]
# name 2 = sal00: Salinity [PSU]
# name 3 = sbeox0Mg/L: Oxygen, SBE 43 [mg/l]
# name 4 = sbeox0PS: Oxygen, SBE 43 [% saturation]
# name 5 = sigma-t00: Density [sigma-t, Kg/m^3 ]
# name 6 = par: PAR/Irradiance, Biospherical/Licor
# name 7 = prdM: Pressure, Strain Gauge [db]
# name 8 = flECO-AFL: Fluorescence, Wetlab ECO-AFL/FL [mg/m^3]
# name 9 = flag: flag
# span 0 =      1.000,     77.000       
# span 1 =     8.1615,     9.2599       
# span 2 =    30.4460,    31.3120       
# span 3 =    9.07256,   10.32286       
# span 4 =   94.79606,  105.54366       
# span 5 =    23.5226,    24.3557       
# span 6 = 1.5440e+00, 1.2545e+02       
# span 7 =      1.835,     76.888       
# span 8 =     0.4002,     0.6693       
# span 9 = 0.0000e+00, 0.0000e+00       
# interval = meters: 1                  
# start_time = Jul 08 2007 08:24:31
# bad_flag = -9.990e-29
# sensor 0 = Frequency 0  temperature, 5061, 05-Oct-06
# sensor 1 = Frequency 1  conductivity, 5061, 05-Oct-06, cpcor = -9.5700e-08
# sensor 2 = Pressure Number
# sensor 3 = Extrnl Volt  0  irradiance (PAR), primary, 4751, 08/10/06
# sensor 4 = Extrnl Volt  1  Oxygen, SBE, primary, 1081, 10/24/06
# sensor 5 = Extrnl Volt  2  WET Labs, ECO_AFL
# sensor 6 = Extrnl Volt  3  userpoly 0, 0627, 10/11/06
# datcnv_date = Oct 15 2007 14:49:44, 5.37e
# datcnv_in = I:\bob d\OTF_GEM\2007\ctd-07036.hex I:\Willette\OTF\CTD\5061.con
# datcnv_skipover = 0
# filter_date = Oct 15 2007 15:02:23, 5.37e
# filter_in = I:\Willette\OTF\CTD\2007\CTD Data\ctd-07036.cnv
# filter_low_pass_tc_A = 1.000
# filter_low_pass_tc_B = 0.150
# filter_low_pass_A_vars = prdM
# filter_low_pass_B_vars =
# loopedit_date = Oct 15 2007 15:06:46, 5.37e
# loopedit_in = I:\Willette\OTF\CTD\2007\CTD Data\ctd-07036.cnv
# loopedit_minVelocity = 0.250                                                                                            
# loopedit_surfaceSoak: minDepth = 5.0, maxDepth = 20, useDeckPress = 1                                                   
# loopedit_excl_bad_scans = yes
# alignctd_date = Oct 15 2007 15:14:14, 5.37e
# alignctd_in = I:\Willette\OTF\CTD\2007\CTD Data\ctd-07036.cnv
# alignctd_adv = tv290C 0.500, sbeox0Mg/L 4.000, sbeox0PS 4.000                                                                                                                                                                      
# binavg_date = Oct 15 2007 15:18:43, 5.37e
# binavg_in = I:\Willette\OTF\CTD\2007\CTD Data\ctd-07036.cnv
# binavg_bintype = meters
# binavg_binsize = 1
# binavg_excl_bad_scans = yes
# binavg_skipover = 0
# binavg_surface_bin = no, min = 0.000, max = 0.000, value = 0.000
# file_type = ascii
*END*
      4.000     8.8620    30.6044    9.07256   94.79606    23.6743 3.7949e+01      5.024     0.5402 0.0000e+00
      5.000     8.8040    30.7024    9.16406   95.67479    23.7720 2.8075e+01      6.098     0.5068 0.0000e+00
      6.000     8.7699    30.7341    9.32827   97.32752    23.8050 2.2213e+01      6.970     0.4954 0.0000e+00
      7.000     8.7499    30.7539    9.45236   98.59249    23.8244 1.7206e+01      7.680     0.4957 0.0000e+00
      8.000     8.7267    30.7837    9.52970   99.37794    23.8524 1.3112e+01      8.533     0.5113 0.0000e+00
      9.000     8.6984    30.8025    9.59258  100.02762    23.8706 1.0369e+01      9.364     0.5281 0.0000e+00
     10.000 -9.990e-29 -9.990e-29 -9.990e-29 -9.990e-29 -9.990e-29 -9.990e-29 -9.990e-29 -9.990e-29 -9.990e-29
     11.000     8.6772    30.8282    9.62132  100.32139    23.8948 7.4012e+00     10.430     0.5141 0.0000e+00
     12.000     8.6434    30.8859    9.66364  100.76211    23.9464 5.2307e+00     11.917     0.5162 0.0000e+00
     13.000     8.6253    30.8957    9.69976  101.12540    23.9574 4.3739e+00     13.195     0.5275 0.0000e+00
     14.000     8.5825    30.9426    9.71700  101.28740    23.9988 3.6651e+00     14.601     0.4979 0.0000e+00
     15.000     8.5526    30.9339    9.74487  101.57518    23.9946 3.2406e+00     15.750     0.4828 0.0000e+00
     16.000     8.5470    30.9614    9.75678  101.69277    24.0206 2.8697e+00     16.484     0.4650 0.0000e+00
     17.000     8.5218    30.9944    9.75793  101.69427    24.0501 2.5311e+00     17.680     0.4532 0.0000e+00
     18.000     8.4849    30.9897    9.76546  101.77121    24.0477 2.3160e+00     18.783     0.5210 0.0000e+00
     19.000     8.4686    30.9991    9.78487  101.97301    24.0575 2.1679e+00     19.430     0.4757 0.0000e+00
     20.000 -9.990e-29 -9.990e-29 -9.990e-29 -9.990e-29 -9.990e-29 -9.990e-29 -9.990e-29 -9.990e-29 -9.990e-29
     21.000     8.4396    31.0320    9.78467  101.96754    24.0907 1.9178e+00     21.203     0.4595 0.0000e+00
     22.000 -9.990e-29 -9.990e-29 -9.990e-29 -9.990e-29 -9.990e-29 -9.990e-29 -9.990e-29 -9.990e-29 -9.990e-29
     23.000     8.4321    31.0543    9.79971  102.11977    24.1128 1.7873e+00     22.775     0.4424 0.0000e+00
     24.000     8.4279    31.0650    9.79408  102.05945    24.1233 1.7121e+00     24.180     0.4588 0.0000e+00
     25.000     8.4282    31.0638    9.79521  102.07152    24.1221 1.6805e+00     24.949     0.4131 0.0000e+00
     26.000     8.4292    31.0666    9.80352  102.15643    24.1248 1.6503e+00     25.877     0.4513 0.0000e+00
     27.000     8.4208    31.0669    9.80938  102.21195    24.1251 1.6271e+00     26.915     0.4452 0.0000e+00
     28.000     8.4128    31.0668    9.81598  102.26240    24.1249 1.6094e+00     28.032     0.4516 0.0000e+00
     29.000     8.4107    31.0759    9.82320  102.30789    24.1333 1.5980e+00     28.863     0.4437 0.0000e+00
     30.000     8.4095    31.0808    9.82799  102.33431    24.1380 1.5865e+00     29.749     0.4416 0.0000e+00
     31.000     8.4022    31.0835    9.83217  102.36178    24.1407 1.5784e+00     31.150     0.4509 0.0000e+00
     32.000     8.3999    31.0869    9.83548  102.37928    24.1440 1.5728e+00     32.118     0.4387 0.0000e+00
     33.000     8.3986    31.0912    9.84427  102.45267    24.1481 1.5676e+00     33.134     0.4252 0.0000e+00
     34.000     8.3971    31.0925    9.83880  102.38298    24.1494 1.5637e+00     34.357     0.4280 0.0000e+00
     35.000     8.3959    31.0927    9.85270  102.51742    24.1497 1.5613e+00     35.371     0.4291 0.0000e+00
     36.000     8.3940    31.0939    9.84770  102.43999    24.1508 1.5592e+00     36.320     0.4379 0.0000e+00
     37.000     8.3934    31.0956    9.85413  102.48425    24.1524 1.5568e+00     37.361     0.4415 0.0000e+00
     38.000     8.3924    31.0965    9.85097  102.44840    24.1533 1.5556e+00     38.318     0.4418 0.0000e+00
     39.000     8.3883    31.0977    9.85914  102.50496    24.1543 1.5542e+00     39.558     0.4238 0.0000e+00
     40.000     8.3777    31.0989    9.85721  102.48002    24.1555 1.5539e+00     40.489     0.4271 0.0000e+00
     41.000     8.3578    31.1030    9.84902  102.37209    24.1591 1.5529e+00     41.316     0.4166 0.0000e+00
     42.000     8.3457    31.1171    9.86399  102.50065    24.1727 1.5524e+00     42.413     0.4504 0.0000e+00
     43.000     8.3393    31.1328    9.86301  102.44887    24.1876 1.5521e+00     43.464     0.4427 0.0000e+00
     44.000     8.3303    31.1387    9.86129  102.41057    24.1935 1.5517e+00     44.393     0.4374 0.0000e+00
     45.000     8.3199    31.1427    9.86511  102.44322    24.1976 1.5511e+00     45.386     0.4191 0.0000e+00
     46.000     8.3138    31.1510    9.86986  102.48827    24.2057 1.5513e+00     46.403     0.4156 0.0000e+00
     47.000     8.3075    31.1607    9.87788  102.55894    24.2148 1.5510e+00     47.473     0.4176 0.0000e+00
     48.000     8.2964    31.1658    9.87896  102.56460    24.2192 1.5510e+00     48.285     0.4002 0.0000e+00
     49.000     8.2821    31.1731    9.87094  102.47101    24.2264 1.5507e+00     49.348     0.4402 0.0000e+00
     50.000     8.2794    31.1867    9.86627  102.41678    24.2393 1.5509e+00     50.516     0.4313 0.0000e+00
     51.000     8.2660    31.1952    9.86291  102.38033    24.2475 1.5506e+00     51.442     0.4166 0.0000e+00
     52.000     8.2610    31.1948    9.85615  102.30979    24.2470 1.5505e+00     52.253     0.4067 0.0000e+00
     53.000     8.2411    31.2100    9.86498  102.40193    24.2612 1.5505e+00     53.559     0.4032 0.0000e+00
     54.000     8.2296    31.2206    9.86732  102.42481    24.2710 1.5504e+00     54.475     0.4132 0.0000e+00
     55.000     8.2072    31.2351    9.86897  102.44029    24.2845 1.5504e+00     55.391     0.4172 0.0000e+00
     56.000     8.1874    31.2546    9.87592  102.51083    24.3020 1.5502e+00     56.853     0.4293 0.0000e+00
     57.000     8.1875    31.2768    9.87741  102.52747    24.3231 1.5505e+00     57.643     0.4389 0.0000e+00
     58.000 -9.990e-29 -9.990e-29 -9.990e-29 -9.990e-29 -9.990e-29 -9.990e-29 -9.990e-29 -9.990e-29 -9.990e-29
     59.000     8.1783    31.2860    9.88055  102.55994    24.3317 1.5502e+00     59.419     0.4443 0.0000e+00
     60.000     8.1724    31.2921    9.87905  102.54412    24.3373 1.5502e+00     60.560     0.4536 0.0000e+00
     61.000     8.1662    31.2971    9.88162  102.56966    24.3419 1.5505e+00     61.507     0.4493 0.0000e+00
     62.000     8.1653    31.3025    9.88351  102.58911    24.3469 1.5503e+00     62.514     0.4456 0.0000e+00
     63.000     8.1649    31.3068    9.88473  102.60190    24.3509 1.5500e+00     63.454     0.4821 0.0000e+00
     64.000     8.1651    31.3077    9.88450  102.59964    24.3519 1.5500e+00     64.543     0.5046 0.0000e+00
     65.000     8.1648    31.3081    9.88253  102.57913    24.3522 1.5500e+00     65.495     0.4923 0.0000e+00
     66.000     8.1639    31.3075    9.88695  102.62504    24.3517 1.5502e+00     66.331     0.4756 0.0000e+00
     67.000     8.1626    31.3088    9.89167  102.67275    24.3529 1.5501e+00     67.562     0.5097 0.0000e+00
     68.000     8.1629    31.3097    9.89300  102.68658    24.3537 1.5497e+00     68.458     0.5173 0.0000e+00
     69.000     8.1628    31.3104    9.89021  102.65756    24.3544 1.5496e+00     69.281     0.5052 0.0000e+00
     70.000     8.1627    31.3102    9.89281  102.68501    24.3542 1.5496e+00     70.525     0.5038 0.0000e+00
     71.000     8.1625    31.3103    9.89047  102.66207    24.3543 1.5496e+00     71.341     0.5487 0.0000e+00
     72.000     8.1617    31.3107    9.88966  102.65482    24.3546 1.5498e+00     72.247     0.5169 0.0000e+00
     73.000     8.1616    31.3111    9.88869  102.64652    24.3549 1.5495e+00     73.197     0.6160 0.0000e+00
     74.000     8.1618    31.3120    9.89275  102.68610    24.3557 1.5496e+00     73.967     0.5168 0.0000e+00
     75.000     8.1618    31.3116    9.89281  102.68663    24.3554 1.5495e+00     74.793     0.5709 0.0000e+00
     76.000     8.1618    31.3118    9.88857  102.64263    24.3555 1.5502e+00     75.457     0.5859 0.0000e+00
     77.000     8.1615    31.3108    9.87700  102.52556    24.3548 1.5440e+00     76.888     0.6693 0.0000e+00
     76.000     8.1633    31.3120    9.88824  102.64132    24.3556 1.5504e+00     75.763     0.6284 0.0000e+00
     75.000     8.1622    31.3115    9.88642  102.62132    24.3552 1.5502e+00     75.050     0.6192 0.0000e+00
     74.000     8.1622    31.3117    9.89532  102.71482    24.3554 1.5517e+00     74.114     0.5928 0.0000e+00
     73.000     8.1625    31.3115    9.88696  102.63036    24.3552 1.5500e+00     73.459     0.5874 0.0000e+00
     72.000     8.1630    31.3111    9.88149  102.58633    24.3549 1.5491e+00     72.438     0.5443 0.0000e+00
     71.000     8.1624    31.3109    9.88009  102.57830    24.3547 1.5494e+00     71.634     0.5848 0.0000e+00
     70.000     8.1630    31.3107    9.88003  102.58798    24.3546 1.5492e+00     70.532     0.6189 0.0000e+00
     69.000     8.1636    31.3104    9.88871  102.67693    24.3543 1.5489e+00     69.660     0.5933 0.0000e+00
     68.000     8.1635    31.3094    9.88391  102.63469    24.3532 1.5489e+00     68.516     0.5356 0.0000e+00
     67.000     8.1632    31.3097    9.88567  102.66054    24.3537 1.5490e+00     67.693     0.5544 0.0000e+00
     66.000     8.1639    31.3098    9.88296  102.63948    24.3537 1.5488e+00     66.730     0.5316 0.0000e+00
     65.000     8.1658    31.3082    9.89136  102.73227    24.3525 1.5494e+00     65.604     0.5141 0.0000e+00
     64.000     8.1735    31.3065    9.89317  102.75697    24.3509 1.5493e+00     64.624     0.5927 0.0000e+00
     63.000     8.1786    31.2988    9.89486  102.77924    24.3438 1.5488e+00     63.590     0.5486 0.0000e+00
     62.000     8.1836    31.2939    9.88822  102.71219    24.3392 1.5488e+00     62.667     0.5493 0.0000e+00
     61.000     8.1820    31.2878    9.88835  102.76125    24.3336 1.5491e+00     61.591     0.4822 0.0000e+00
     60.000     8.1877    31.2891    9.89564  102.87551    24.3348 1.5488e+00     60.661     0.4775 0.0000e+00
     59.000     8.1945    31.2832    9.89424  102.89385    24.3294 1.5487e+00     59.557     0.4867 0.0000e+00
     58.000     8.1976    31.2770    9.89325  102.90720    24.3237 1.5487e+00     58.583     0.4734 0.0000e+00
     57.000     8.2010    31.2734    9.89571  102.94951    24.3204 1.5487e+00     57.590     0.4846 0.0000e+00
     56.000     8.2046    31.2694    9.89436  102.95143    24.3167 1.5486e+00     56.560     0.4784 0.0000e+00
     55.000     8.2062    31.2664    9.89241  102.94098    24.3139 1.5483e+00     55.679     0.4894 0.0000e+00
     54.000     8.2283    31.2635    9.89510  102.98013    24.3113 1.5486e+00     54.517     0.4619 0.0000e+00
     53.000     8.2502    31.2435    9.88509  102.88471    24.2930 1.5486e+00     53.702     0.4758 0.0000e+00
     52.000     8.2756    31.2100    9.88508  102.90165    24.2621 1.5482e+00     52.512     0.4349 0.0000e+00
     51.000     8.2908    31.1911    9.88444  102.91347    24.2443 1.5486e+00     51.485     0.4223 0.0000e+00
     50.000     8.3026    31.1804    9.87328  102.81433    24.2342 1.5485e+00     50.594     0.4589 0.0000e+00
     49.000     8.3121    31.1692    9.87980  102.91723    24.2232 1.5485e+00     49.375     0.4272 0.0000e+00
     48.000     8.3175    31.1627    9.87675  102.89572    24.2169 1.5489e+00     48.320     0.4728 0.0000e+00
     47.000     8.3239    31.1587    9.88381  102.97841    24.2131 1.5489e+00     47.361     0.4366 0.0000e+00
     46.000     8.3307    31.1551    9.88805  103.02655    24.2096 1.5488e+00     46.514     0.4230 0.0000e+00
     45.000     8.3384    31.1461    9.87668  102.91399    24.2008 1.5486e+00     45.125     0.4276 0.0000e+00
     44.000     8.3489    31.1437    9.88111  102.96297    24.1985 1.5491e+00     44.438     0.4526 0.0000e+00
     43.000     8.3621    31.1320    9.88335  103.00378    24.1874 1.5495e+00     43.266     0.4714 0.0000e+00
     42.000     8.3715    31.1254    9.88463  103.02127    24.1809 1.5501e+00     42.434     0.4548 0.0000e+00
     41.000     8.3779    31.1171    9.89254  103.10453    24.1728 1.5504e+00     41.445     0.4541 0.0000e+00
     40.000     8.3841    31.1106    9.88874  103.06655    24.1666 1.5507e+00     40.346     0.4425 0.0000e+00
     39.000     8.3865    31.1058    9.89081  103.09019    24.1620 1.5516e+00     39.356     0.4624 0.0000e+00
     38.000     8.3888    31.1032    9.89024  103.08767    24.1596 1.5524e+00     38.343     0.4643 0.0000e+00
     37.000     8.3914    31.1005    9.88346  103.02446    24.1572 1.5539e+00     37.252     0.4505 0.0000e+00
     36.000     8.3995    31.0979    9.88614  103.05860    24.1547 1.5556e+00     36.221     0.4896 0.0000e+00
     35.000     8.4041    31.0910    9.88453  103.04454    24.1483 1.5577e+00     35.315     0.4903 0.0000e+00
     34.000     8.4049    31.0849    9.89244  103.13158    24.1426 1.5603e+00     34.125     0.4484 0.0000e+00
     33.000     8.4052    31.0851    9.88909  103.10677    24.1428 1.5639e+00     33.305     0.4662 0.0000e+00
     32.000     8.4060    31.0849    9.89160  103.15693    24.1425 1.5684e+00     32.188     0.4593 0.0000e+00
     31.000     8.4074    31.0845    9.88924  103.14674    24.1422 1.5749e+00     31.308     0.4864 0.0000e+00
     30.000     8.4099    31.0829    9.88733  103.13958    24.1408 1.5816e+00     30.082     0.4745 0.0000e+00
     29.000     8.4136    31.0808    9.89158  103.20292    24.1388 1.5915e+00     29.316     0.4946 0.0000e+00
     28.000     8.4174    31.0751    9.86759  102.94949    24.1336 1.6035e+00     28.195     0.4370 0.0000e+00
     27.000     8.4187    31.0732    9.87403  103.03218    24.1318 1.6210e+00     27.427     0.4564 0.0000e+00
     26.000     8.4209    31.0699    9.87033  103.01887    24.1288 1.6418e+00     26.208     0.4379 0.0000e+00
     25.000     8.4244    31.0691    9.87411  103.07080    24.1280 1.6693e+00     25.464     0.4617 0.0000e+00
     24.000     8.4372    31.0653    9.88005  103.17288    24.1243 1.7055e+00     24.090     0.4867 0.0000e+00
     23.000     8.4470    31.0585    9.87124  103.17276    24.1178 1.7515e+00     23.353     0.4797 0.0000e+00
     22.000     8.4543    31.0467    9.88440  103.38005    24.1064 1.8148e+00     22.174     0.4437 0.0000e+00
     21.000     8.4689    31.0413    9.86932  103.22637    24.1013 1.8955e+00     21.053     0.4519 0.0000e+00
     20.000     8.4671    31.0310    9.88589  103.41994    24.0913 1.9972e+00     20.078     0.4876 0.0000e+00
     19.000     8.4768    31.0335    9.85624  103.13088    24.0937 2.1206e+00     19.116     0.4339 0.0000e+00
     18.000     8.4876    31.0254    9.87241  103.34558    24.0859 2.2959e+00     18.200     0.4782 0.0000e+00
     17.000     8.4971    31.0148    9.85040  103.16258    24.0758 2.5206e+00     17.126     0.4547 0.0000e+00
     16.000     8.5208    31.0077    9.83739  103.08958    24.0688 2.7983e+00     16.109     0.4683 0.0000e+00
     15.000     8.5697    30.9863    9.85991  103.37501    24.0484 3.2047e+00     15.210     0.4762 0.0000e+00
     14.000 -9.990e-29 -9.990e-29 -9.990e-29 -9.990e-29 -9.990e-29 -9.990e-29 -9.990e-29 -9.990e-29 -9.990e-29
     13.000     8.6098    30.9267    9.84164  103.25763    23.9917 4.3228e+00     13.634     0.4820 0.0000e+00
     12.000     8.6109    30.9088    9.88301  103.75800    23.9745 5.2466e+00     12.554     0.4860 0.0000e+00
     11.000     8.6418    30.9000    9.88821  104.06892    23.9663 6.5157e+00     11.363     0.5005 0.0000e+00
     10.000     8.7072    30.8528    9.94353  105.09031    23.9218 8.1901e+00      9.634     0.4949 0.0000e+00
      9.000     8.7545    30.8130    9.97681  105.54366    23.8846 1.0348e+01      8.657     0.5050 0.0000e+00
      8.000     8.7688    30.7838    9.95832  105.30289    23.8574 1.3292e+01      8.028     0.5124 0.0000e+00
      7.000     8.7997    30.7586   10.32286  100.48340    23.8334 1.7338e+01      6.980     0.5266 0.0000e+00
      6.000     8.8247    30.7418 -9.990e-29 -9.990e-29    23.8169 2.3024e+01      6.175     0.5243 0.0000e+00
      5.000     8.9197    30.7222 -9.990e-29 -9.990e-29    23.7964 3.0423e+01      5.089     0.5271 0.0000e+00
      4.000     8.9984    30.6804 -9.990e-29 -9.990e-29    23.7526 4.0959e+01      4.292     0.5096 0.0000e+00
      3.000     9.1214    30.6170 -9.990e-29 -9.990e-29    23.6890 5.2927e+01      3.365     0.5479 0.0000e+00
      2.000     9.2092    30.5311 -9.990e-29 -9.990e-29    23.6053 7.2200e+01      2.563     0.5889 0.0000e+00
      1.000     9.2599    30.4460 -9.990e-29 -9.990e-29    23.5226 1.2545e+02      1.835     0.6103 0.0000e+00
