* Sea-Bird SBE19plus Data File:
* FileName = C:\data\otf\2007\ctd-07112.hex
* Software Version 1.55
* Temperature SN =  5061
* Conductivity SN =  5061
* System UpLoad Time = Aug 15 2007 16:40:35
* ds
* SeacatPlus V 1.6a  SERIAL NO. 5061    15 Aug 2007  15:31:53
* vbatt = 10.9, vlith =  8.7, ioper =  61.6 ma, ipump =  57.5 ma, 
* iext01 =  95.2 ma
* iext23 =  58.1 ma
* 
* status = not logging
* number of scans to average = 1
* samples = 153039, free = 288466, casts = 154
* mode = profile, minimum cond freq = 3000, pump delay = 60 sec
* autorun = no, ignore magnetic switch = no
* battery type = alkaline, battery cutoff =  7.3 volts
* pressure sensor = strain gauge, range = 870.0
* SBE 38 = no, Gas Tension Device = no
* Ext Volt 0 = yes, Ext Volt 1 = yes, Ext Volt 2 = yes, Ext Volt 3 = yes
* echo commands = yes
* output format = raw HEX
* S>
* 
* SeacatPlus V 1.6a  SERIAL NO. 5061    15 Aug 2007  15:32:18
* temperature:  05-oct-06
*     TA0 = 1.254184e-03
*     TA1 = 2.596730e-04
*     TA2 = 5.165612e-07
*     TA3 = 1.318931e-07
*     TOFFSET = 0.000000e+00
* conductivity:  05-oct-06
*     G = -9.978144e-01
*     H = 1.555200e-01
*     I = -4.839108e-04
*     J = 6.121100e-05
*     CF0 = 2.539936e+03
*     CPCOR = -9.570000e-08
*     CTCOR = 3.250000e-06
*     CSLOPE = 1.000000e+00
* pressure S/N = 2362539, range = 870 psia:  24-aug-06
*     PA0 = 2.171091e-01
*     PA1 = 2.647085e-03
*     PA2 = 1.419397e-11
*     PTCA0 = 5.242437e+05
*     PTCA1 = 7.545345e+00
*     PTCA2 = -1.835354e-01
*     PTCB0 = 2.537125e+01
*     PTCB1 = -1.750000e-03
*     PTCB2 = 0.000000e+00
*     PTEMPA0 = -5.753989e+01
*     PTEMPA1 = 5.235813e+01
*     PTEMPA2 = -4.015521e-02
*     POFFSET = 0.000000e+00
* volt 0: offset = -4.682842e-02, slope = 1.249147e+00
* volt 1: offset = -4.695158e-02, slope = 1.248145e+00
* volt 2: offset = -4.685263e-02, slope = 1.248783e+00
* volt 3: offset = -4.690316e-02, slope = 1.249508e+00
*     EXTFREQSF = 1.000002e+00
* dh
* cast 112 22 Jul 2007 11:09:29 samples 73550 to 74641, avg = 1, stop = mag switch
* S> 
# nquan = 10
# nvalues = 161                         
# units = specified
# name 0 = depSM: Depth [salt water, m]
# name 1 = tv290C: Temperature [ITS-90, deg C]
# name 2 = sal00: Salinity [PSU]
# name 3 = sbeox0Mg/L: Oxygen, SBE 43 [mg/l]
# name 4 = sbeox0PS: Oxygen, SBE 43 [% saturation]
# name 5 = sigma-t00: Density [sigma-t, Kg/m^3 ]
# name 6 = par: PAR/Irradiance, Biospherical/Licor
# name 7 = prdM: Pressure, Strain Gauge [db]
# name 8 = flECO-AFL: Fluorescence, Wetlab ECO-AFL/FL [mg/m^3]
# name 9 = flag: flag
# span 0 =      1.000,     83.000       
# span 1 =     8.7060,    10.2999       
# span 2 =    30.1860,    31.3150       
# span 3 =    8.42161,    9.57087       
# span 4 =   90.96987,  101.16220       
# span 5 =    23.1504,    24.2783       
# span 6 = 1.5473e+00, 8.2331e+01       
# span 7 =      1.099,     83.495       
# span 8 =     0.9621,     1.4608       
# span 9 = 0.0000e+00, 0.0000e+00       
# interval = meters: 1                  
# start_time = Jul 22 2007 11:09:29
# bad_flag = -9.990e-29
# sensor 0 = Frequency 0  temperature, 5061, 05-Oct-06
# sensor 1 = Frequency 1  conductivity, 5061, 05-Oct-06, cpcor = -9.5700e-08
# sensor 2 = Pressure Number
# sensor 3 = Extrnl Volt  0  irradiance (PAR), primary, 4751, 08/10/06
# sensor 4 = Extrnl Volt  1  Oxygen, SBE, primary, 1081, 10/24/06
# sensor 5 = Extrnl Volt  2  WET Labs, ECO_AFL
# sensor 6 = Extrnl Volt  3  userpoly 0, 0627, 10/11/06
# datcnv_date = Oct 15 2007 14:49:48, 5.37e
# datcnv_in = I:\bob d\OTF_GEM\2007\ctd-07112.hex I:\Willette\OTF\CTD\5061.con
# datcnv_skipover = 0
# filter_date = Oct 15 2007 15:02:30, 5.37e
# filter_in = I:\Willette\OTF\CTD\2007\CTD Data\ctd-07112.cnv
# filter_low_pass_tc_A = 1.000
# filter_low_pass_tc_B = 0.150
# filter_low_pass_A_vars = prdM
# filter_low_pass_B_vars =
# loopedit_date = Oct 15 2007 15:06:51, 5.37e
# loopedit_in = I:\Willette\OTF\CTD\2007\CTD Data\ctd-07112.cnv
# loopedit_minVelocity = 0.250                                                                                            
# loopedit_surfaceSoak: minDepth = 5.0, maxDepth = 20, useDeckPress = 1                                                   
# loopedit_excl_bad_scans = yes
# alignctd_date = Oct 15 2007 15:14:18, 5.37e
# alignctd_in = I:\Willette\OTF\CTD\2007\CTD Data\ctd-07112.cnv
# alignctd_adv = tv290C 0.500, sbeox0Mg/L 4.000, sbeox0PS 4.000                                                                                                                                                                      
# binavg_date = Oct 15 2007 15:18:47, 5.37e
# binavg_in = I:\Willette\OTF\CTD\2007\CTD Data\ctd-07112.cnv
# binavg_bintype = meters
# binavg_binsize = 1
# binavg_excl_bad_scans = yes
# binavg_skipover = 0
# binavg_surface_bin = no, min = 0.000, max = 0.000, value = 0.000
# file_type = ascii
*END*
      5.000    10.2999    30.1937    8.42161   91.04506    23.1529 2.1536e+01      5.016     0.9621 0.0000e+00
      6.000    10.2977    30.1912    8.47392   91.57980    23.1512 1.7058e+01      6.072     1.0427 0.0000e+00
      7.000    10.2950    30.1932    8.47017   91.51349    23.1532 1.2759e+01      7.044     1.0798 0.0000e+00
      8.000    10.2807    30.1891    8.47962   91.54521    23.1515 9.9247e+00      8.067     1.1004 0.0000e+00
      9.000    10.2636    30.1985    8.55670   92.32791    23.1619 7.6481e+00      9.125     1.1165 0.0000e+00
     10.000    10.2462    30.1927    8.44079   90.96987    23.1594 6.2183e+00     10.148     1.1115 0.0000e+00
     11.000    10.2089    30.2117    8.59484   92.52071    23.1802 5.0694e+00     11.084     1.0908 0.0000e+00
     12.000    10.1636    30.2079    8.71081   93.56585    23.1826 4.1494e+00     12.325     1.0647 0.0000e+00
     13.000    10.1102    30.2320    8.76841   94.14461    23.2088 3.5123e+00     13.136     1.0583 0.0000e+00
     14.000    10.0640    30.2783    8.75942   94.02593    23.2532 3.0168e+00     14.131     1.0877 0.0000e+00
     15.000     9.9710    30.3455    8.76106   94.01409    23.3172 2.6848e+00     15.127     1.0883 0.0000e+00
     16.000     9.9110    30.4256    8.82804   94.68833    23.3931 2.4186e+00     16.059     1.0739 0.0000e+00
     17.000     9.8853    30.4770    8.94699   95.90435    23.4397 2.1990e+00     17.187     1.0606 0.0000e+00
     18.000     9.8623    30.4974    8.91311   95.50342    23.4592 2.0425e+00     18.329     1.0475 0.0000e+00
     19.000     9.8395    30.5148    8.80090   94.20551    23.4753 1.9397e+00     19.235     1.0740 0.0000e+00
     20.000     9.8015    30.5380    8.82239   94.40647    23.4979 1.8565e+00     20.022     1.0933 0.0000e+00
     21.000     9.7828    30.5978    8.91922   95.38657    23.5508 1.7827e+00     21.141     1.0728 0.0000e+00
     22.000     9.7261    30.5862    9.00795   96.22785    23.5463 1.7295e+00     22.408     1.0851 0.0000e+00
     23.000     9.7032    30.6195    9.04258   96.54872    23.5796 1.6893e+00     23.304     1.0662 0.0000e+00
     24.000     9.6863    30.6266    9.06676   96.79075    23.5876 1.6594e+00     24.246     1.0775 0.0000e+00
     25.000     9.6523    30.6389    9.05922   96.69104    23.6011 1.6364e+00     25.220     1.0807 0.0000e+00
     26.000     9.6142    30.6601    9.05844   96.65848    23.6237 1.6182e+00     26.264     1.0742 0.0000e+00
     27.000     9.5850    30.6799    9.10913   97.11475    23.6448 1.6035e+00     27.236     1.0522 0.0000e+00
     28.000     9.5743    30.6971    9.13519   97.32456    23.6613 1.5913e+00     28.255     1.0708 0.0000e+00
     29.000     9.5625    30.7041    9.06904   96.54462    23.6686 1.5821e+00     29.400     1.0758 0.0000e+00
     30.000     9.5515    30.7066    9.04616   96.24298    23.6719 1.5754e+00     30.355     1.0655 0.0000e+00
     31.000     9.5101    30.7108    9.09021   96.66213    23.6776 1.5704e+00     31.186     1.0562 0.0000e+00
     32.000     9.4658    30.7615    9.17064   97.46401    23.7261 1.5653e+00     32.226     1.0677 0.0000e+00
     33.000     9.4232    30.7862    9.25391   98.28328    23.7523 1.5624e+00     33.515     1.0940 0.0000e+00
     34.000     9.3971    30.7976    9.28920   98.63296    23.7655 1.5599e+00     34.348     1.0773 0.0000e+00
     35.000     9.3686    30.8064    9.31618   98.90220    23.7764 1.5579e+00     35.219     1.0671 0.0000e+00
     36.000     9.3359    30.8319    9.34321   99.17351    23.8022 1.5560e+00     36.280     1.1180 0.0000e+00
     37.000     9.3028    30.8566    9.35746   99.30798    23.8265 1.5549e+00     37.423     1.4159 0.0000e+00
     38.000     9.2802    30.8793    9.36982   99.42618    23.8490 1.5537e+00     38.540     1.4505 0.0000e+00
     39.000     9.2726    30.8858    9.37709   99.48855    23.8555 1.5536e+00     39.352     1.3817 0.0000e+00
     40.000     9.2663    30.8922    9.38528   99.55837    23.8619 1.5532e+00     40.238     1.4316 0.0000e+00
     41.000     9.2569    30.8984    9.39089   99.61168    23.8681 1.5525e+00     41.343     1.4285 0.0000e+00
     42.000     9.2492    30.9054    9.39772   99.67565    23.8749 1.5520e+00     42.444     1.4270 0.0000e+00
     43.000     9.2397    30.9115    9.41025   99.79098    23.8808 1.5515e+00     43.315     1.4456 0.0000e+00
     44.000     9.2279    30.9220    9.41788   99.85434    23.8910 1.5512e+00     44.391     1.4608 0.0000e+00
     45.000     9.2247    30.9275    9.43124   99.98102    23.8965 1.5507e+00     45.601     1.4606 0.0000e+00
     46.000     9.2202    30.9280    9.43773  100.04061    23.8971 1.5512e+00     46.386     1.4558 0.0000e+00
     47.000     9.2082    30.9334    9.44571  100.10398    23.9028 1.5510e+00     47.369     1.4417 0.0000e+00
     48.000     9.2001    30.9418    9.45332  100.14435    23.9111 1.5505e+00     48.417     1.4420 0.0000e+00
     49.000     9.1922    30.9460    9.45640  100.12072    23.9155 1.5508e+00     49.468     1.4580 0.0000e+00
     50.000     9.1833    30.9511    9.46164  100.10720    23.9207 1.5505e+00     50.548     1.4331 0.0000e+00
     51.000     9.1636    30.9583    9.46331  100.08157    23.9282 1.5506e+00     51.477     1.4215 0.0000e+00
     52.000     9.1402    30.9734    9.46771  100.08459    23.9434 1.5503e+00     52.423     1.4379 0.0000e+00
     53.000     9.1061    30.9952    9.46677  100.00519    23.9652 1.5503e+00     53.485     1.4120 0.0000e+00
     54.000     9.0682    31.0250    9.47117  100.02636    23.9944 1.5503e+00     54.525     1.4004 0.0000e+00
     55.000     9.0431    31.0473    9.48013  100.10198    24.0162 1.5500e+00     55.572     1.3949 0.0000e+00
     56.000     9.0006    31.0734    9.49073  100.19064    24.0417 1.5504e+00     56.540     1.4060 0.0000e+00
     57.000     8.9842    31.0997    9.49784  100.23779    24.0672 1.5504e+00     57.527     1.4064 0.0000e+00
     58.000     8.9764    31.1048    9.50465  100.29265    24.0725 1.5499e+00     58.528     1.3899 0.0000e+00
     59.000     8.9636    31.1105    9.50734  100.31514    24.0786 1.5500e+00     59.568     1.3619 0.0000e+00
     60.000     8.9470    31.1214    9.51383  100.37260    24.0894 1.5501e+00     60.690     1.3475 0.0000e+00
     61.000     8.9361    31.1294    9.51435  100.36569    24.0977 1.5497e+00     61.536     1.3512 0.0000e+00
     62.000     8.9329    31.1341    9.51175  100.32061    24.1024 1.5502e+00     62.516     1.3474 0.0000e+00
     63.000     8.9283    31.1361    9.51407  100.33010    24.1045 1.5502e+00     63.653     1.3335 0.0000e+00
     64.000     8.9210    31.1398    9.51615  100.32952    24.1083 1.5501e+00     64.589     1.3244 0.0000e+00
     65.000     8.9097    31.1474    9.51917  100.28404    24.1159 1.5501e+00     65.646     1.3233 0.0000e+00
     66.000     8.9035    31.1533    9.52308  100.26883    24.1216 1.5500e+00     66.591     1.3128 0.0000e+00
     67.000     8.8909    31.1595    9.52985  100.30981    24.1278 1.5498e+00     67.634     1.3052 0.0000e+00
     68.000     8.8504    31.1781    9.53413  100.28804    24.1461 1.5499e+00     68.679     1.3113 0.0000e+00
     69.000     8.8108    31.2192    9.53835  100.29791    24.1857 1.5496e+00     69.725     1.3158 0.0000e+00
     70.000     8.7997    31.2369    9.53889  100.28176    24.2027 1.5499e+00     70.643     1.3057 0.0000e+00
     71.000     8.7695    31.2495    9.54311  100.32008    24.2150 1.5494e+00     71.620     1.3066 0.0000e+00
     72.000     8.7402    31.2825    9.54170  100.30011    24.2467 1.5497e+00     72.774     1.2998 0.0000e+00
     73.000     8.7238    31.2951    9.54659  100.35108    24.2590 1.5496e+00     73.711     1.2979 0.0000e+00
     74.000     8.7211    31.3029    9.55363  100.42349    24.2664 1.5493e+00     74.682     1.2849 0.0000e+00
     75.000     8.7181    31.3058    9.54946  100.37148    24.2692 1.5495e+00     75.718     1.2772 0.0000e+00
     76.000     8.7169    31.3073    9.54822  100.35347    24.2707 1.5495e+00     76.704     1.2832 0.0000e+00
     77.000     8.7165    31.3072    9.55707  100.44356    24.2706 1.5496e+00     77.686     1.2782 0.0000e+00
     78.000     8.7123    31.3084    9.56569  100.53289    24.2718 1.5494e+00     78.848     1.2678 0.0000e+00
     79.000     8.7089    31.3133    9.56935  100.57062    24.2766 1.5496e+00     79.816     1.2762 0.0000e+00
     80.000     8.7076    31.3134    9.57087  100.58615    24.2767 1.5499e+00     80.620     1.2600 0.0000e+00
     81.000     8.7068    31.3146    9.57019  100.57927    24.2779 1.5492e+00     81.668     1.2465 0.0000e+00
     82.000     8.7061    31.3150    9.55586  100.43172    24.2783 1.5495e+00     82.679     1.2484 0.0000e+00
     83.000     8.7060    31.3148    9.55776  100.45186    24.2781 1.5507e+00     83.495     1.2274 0.0000e+00
     82.000     8.7087    31.3148    9.55596  100.43533    24.2779 1.5487e+00     82.723     1.2045 0.0000e+00
     81.000     8.7082    31.3136    9.55601  100.43556    24.2768 1.5487e+00     81.752     1.1818 0.0000e+00
     80.000     8.7090    31.3142    9.55161  100.39053    24.2773 1.5489e+00     80.765     1.1806 0.0000e+00
     79.000     8.7086    31.3137    9.55208  100.39958    24.2769 1.5485e+00     79.737     1.2092 0.0000e+00
     78.000     8.7096    31.3146    9.55071  100.38898    24.2776 1.5487e+00     78.720     1.2190 0.0000e+00
     77.000     8.7125    31.3106    9.55685  100.45672    24.2740 1.5484e+00     77.744     1.1952 0.0000e+00
     76.000     8.7145    31.3093    9.55185  100.40886    24.2727 1.5483e+00     76.759     1.1644 0.0000e+00
     75.000     8.7163    31.3069    9.55333  100.43817    24.2705 1.5485e+00     75.707     1.2161 0.0000e+00
     74.000     8.7190    31.3062    9.55184  100.42777    24.2697 1.5483e+00     74.714     1.2265 0.0000e+00
     73.000     8.7264    31.3009    9.55149  100.42599    24.2646 1.5483e+00     73.763     1.1790 0.0000e+00
     72.000     8.7305    31.2951    9.55641  100.47306    24.2591 1.5480e+00     72.570     1.2116 0.0000e+00
     71.000     8.7305    31.2959    9.56012  100.51934    24.2597 1.5483e+00     71.754     1.1777 0.0000e+00
     70.000     8.7294    31.2959    9.55689  100.55811    24.2600 1.5483e+00     70.653     1.1941 0.0000e+00
     69.000     8.7403    31.2930    9.56005  100.65047    24.2571 1.5483e+00     69.621     1.1606 0.0000e+00
     68.000     8.7749    31.2660    9.55160  100.60288    24.2312 1.5483e+00     68.697     1.1744 0.0000e+00
     67.000     8.8092    31.2341    9.54979  100.66199    24.2007 1.5482e+00     67.637     1.1407 0.0000e+00
     66.000     8.8420    31.2104    9.54809  100.67625    24.1778 1.5476e+00     66.627     1.1113 0.0000e+00
     65.000     8.8823    31.1747    9.54332  100.64449    24.1433 1.5481e+00     65.622     1.1187 0.0000e+00
     64.000     8.8963    31.1608    9.53329  100.55576    24.1298 1.5479e+00     64.644     1.1180 0.0000e+00
     63.000     8.9066    31.1510    9.53626  100.60510    24.1201 1.5477e+00     63.509     1.1329 0.0000e+00
     62.000     8.9156    31.1463    9.53318  100.57911    24.1153 1.5479e+00     62.635     1.1192 0.0000e+00
     61.000     8.9242    31.1390    9.53588  100.61560    24.1080 1.5480e+00     61.564     1.1459 0.0000e+00
     60.000     8.9282    31.1363    9.52845  100.57287    24.1052 1.5475e+00     60.631     1.1364 0.0000e+00
     59.000     8.9334    31.1336    9.52724  100.59986    24.1024 1.5479e+00     59.459     1.1284 0.0000e+00
     58.000     8.9537    31.1278    9.52892  100.62181    24.0961 1.5475e+00     58.661     1.1069 0.0000e+00
     57.000     8.9733    31.1059    9.53188  100.67380    24.0745 1.5479e+00     57.471     1.1088 0.0000e+00
     56.000     8.9771    31.1057    9.53198  100.72237    24.0741 1.5478e+00     56.548     1.1207 0.0000e+00
     55.000     8.9850    31.1006    9.52816  100.72127    24.0690 1.5476e+00     55.422     1.1243 0.0000e+00
     54.000     9.0161    31.0781    9.51795  100.72736    24.0471 1.5478e+00     54.509     1.1199 0.0000e+00
     53.000     9.0346    31.0694    9.50905  100.66235    24.0386 1.5473e+00     53.489     1.1387 0.0000e+00
     52.000     9.0930    31.0293    9.50887  100.69978    23.9991 1.5477e+00     52.575     1.1283 0.0000e+00
     51.000     9.1186    30.9944    9.51070  100.77042    23.9652 1.5478e+00     51.438     1.1711 0.0000e+00
     50.000     9.1413    30.9846    9.50931  100.78984    23.9553 1.5480e+00     50.495     1.1414 0.0000e+00
     49.000     9.1649    30.9653    9.50342  100.73807    23.9360 1.5479e+00     49.443     1.1230 0.0000e+00
     48.000     9.1857    30.9521    9.49974  100.70871    23.9224 1.5478e+00     48.445     1.1494 0.0000e+00
     47.000     9.1911    30.9465    9.50011  100.72368    23.9169 1.5478e+00     47.486     1.1458 0.0000e+00
     46.000     9.1958    30.9428    9.50145  100.74151    23.9130 1.5479e+00     46.362     1.1576 0.0000e+00
     45.000     9.2010    30.9405    9.49666  100.69196    23.9106 1.5479e+00     45.440     1.1581 0.0000e+00
     44.000     9.2031    30.9373    9.49100  100.65070    23.9074 1.5480e+00     44.325     1.1156 0.0000e+00
     43.000     9.2032    30.9384    9.48808  100.63637    23.9084 1.5484e+00     43.414     1.1232 0.0000e+00
     42.000     9.2083    30.9370    9.48467  100.61488    23.9070 1.5486e+00     42.507     1.1423 0.0000e+00
     41.000     9.2243    30.9256    9.48541  100.63874    23.8957 1.5490e+00     41.314     1.1511 0.0000e+00
     40.000     9.2331    30.9181    9.48478  100.64791    23.8884 1.5499e+00     40.355     1.1399 0.0000e+00
     39.000     9.2395    30.9115    9.48530  100.66476    23.8821 1.5499e+00     39.408     1.1617 0.0000e+00
     38.000     9.2476    30.9055    9.48921  100.71888    23.8762 1.5506e+00     38.399     1.1627 0.0000e+00
     37.000     9.2582    30.8971    9.48649  100.74181    23.8679 1.5517e+00     37.245     1.1522 0.0000e+00
     36.000     9.2628    30.8942    9.48197  100.75720    23.8650 1.5528e+00     36.369     1.1520 0.0000e+00
     35.000     9.2833    30.8850    9.47978  100.80791    23.8558 1.5542e+00     35.292     1.1662 0.0000e+00
     34.000     9.3155    30.8631    9.47021  100.73455    23.8342 1.5562e+00     34.398     1.1663 0.0000e+00
     33.000     9.3703    30.8200    9.46513  100.70474    23.7917 1.5593e+00     33.220     1.1508 0.0000e+00
     32.000     9.3868    30.8027    9.46373  100.70865    23.7747 1.5624e+00     32.362     1.1574 0.0000e+00
     31.000     9.4000    30.7922    9.46839  100.85570    23.7641 1.5665e+00     31.204     1.1615 0.0000e+00
     30.000     9.4086    30.7883    9.46663  100.94272    23.7600 1.5720e+00     30.370     1.1454 0.0000e+00
     29.000     9.4648    30.7676    9.46635  101.01449    23.7378 1.5793e+00     29.177     1.1708 0.0000e+00
     28.000     9.5224    30.7182    9.45562  100.91766    23.6884 1.5883e+00     28.315     1.1491 0.0000e+00
     27.000     9.5581    30.6943    9.45498  100.93350    23.6637 1.5998e+00     27.232     1.1472 0.0000e+00
     26.000     9.5685    30.6834    9.45255  100.92826    23.6531 1.6156e+00     26.307     1.1097 0.0000e+00
     25.000     9.5838    30.6720    9.44450  100.87786    23.6416 1.6365e+00     25.126     1.1552 0.0000e+00
     24.000     9.5923    30.6666    9.44216  100.85729    23.6361 1.6608e+00     24.264     1.1829 0.0000e+00
     23.000     9.6075    30.6597    9.44620  100.92047    23.6285 1.6941e+00     23.255     1.1322 0.0000e+00
     22.000     9.6158    30.6519    9.44608  100.95764    23.6204 1.7380e+00     22.145     1.1353 0.0000e+00
     21.000     9.6234    30.6496    9.44940  101.02661    23.6179 1.7924e+00     21.195     1.2561 0.0000e+00
     20.000     9.6367    30.6438    9.44559  101.11358    23.6115 1.8622e+00     20.228     1.2267 0.0000e+00
     19.000     9.6576    30.6337    9.43520  101.14577    23.6005 1.9593e+00     19.168     1.2010 0.0000e+00
     18.000     9.7007    30.6267    9.42707  101.10748    23.5915 2.0845e+00     18.176     1.1667 0.0000e+00
     17.000     9.7964    30.5650    9.42174  101.05815    23.5276 2.2443e+00     17.194     1.1596 0.0000e+00
     16.000     9.8311    30.5270    9.41704  101.01748    23.4901 2.4510e+00     16.162     1.1738 0.0000e+00
     15.000     9.8437    30.5082    9.41897  101.06338    23.4720 2.7446e+00     15.139     1.0987 0.0000e+00
     14.000     9.8518    30.4987    9.41728  101.05245    23.4641 3.1049e+00     14.120     1.0933 0.0000e+00
     13.000     9.8677    30.4783    9.41503  101.11764    23.4454 3.5756e+00     13.150     1.1036 0.0000e+00
     12.000     9.8792    30.4624    9.40053  101.16220    23.4315 4.2649e+00     12.112     1.1222 0.0000e+00
     11.000     9.9426    30.4172    9.37764  100.98538    23.3906 5.1059e+00     11.058     1.1166 0.0000e+00
     10.000    10.0551    30.3007    9.35641  100.87164    23.2799 6.3083e+00     10.119     1.0731 0.0000e+00
      9.000    10.1022    30.2535    9.32743  100.65771    23.2340 7.9594e+00      9.037     1.1109 0.0000e+00
      8.000    10.1629    30.2263    9.31149  100.54628    23.2034 9.9648e+00      8.062     1.0069 0.0000e+00
      7.000    10.1992    30.2079    9.30037  100.45623    23.1822 1.2632e+01      7.105     0.9931 0.0000e+00
      6.000    10.2333    30.1984    9.28008  100.26962    23.1688 1.6730e+01      6.034     1.0129 0.0000e+00
      5.000    10.2485    30.1942    9.27817  100.27247    23.1627 2.2325e+01      5.041     1.0154 0.0000e+00
      4.000    10.2623    30.1908    9.27561  100.25480    23.1574 2.8485e+01      4.054     1.0400 0.0000e+00
      3.000    10.2720    30.1909    9.26780  100.20367    23.1562 3.6741e+01      3.022     1.0088 0.0000e+00
      2.000    10.2798    30.1860    9.21864   99.67473    23.1504 4.8970e+01      2.013     1.0218 0.0000e+00
      1.000    10.2900    30.1881    9.39021   98.58011    23.1513 8.2331e+01      1.099     1.0575 0.0000e+00
