* Sea-Bird SBE19plus Data File:
* FileName = C:\data\otf\2007\ctd-07134.hex
* Software Version 1.55
* Temperature SN =  5061
* Conductivity SN =  5061
* System UpLoad Time = Aug 15 2007 17:28:42
* ds
* SeacatPlus V 1.6a  SERIAL NO. 5061    15 Aug 2007  15:31:53
* vbatt = 10.9, vlith =  8.7, ioper =  61.6 ma, ipump =  57.5 ma, 
* iext01 =  95.2 ma
* iext23 =  58.1 ma
* 
* status = not logging
* number of scans to average = 1
* samples = 153039, free = 288466, casts = 154
* mode = profile, minimum cond freq = 3000, pump delay = 60 sec
* autorun = no, ignore magnetic switch = no
* battery type = alkaline, battery cutoff =  7.3 volts
* pressure sensor = strain gauge, range = 870.0
* SBE 38 = no, Gas Tension Device = no
* Ext Volt 0 = yes, Ext Volt 1 = yes, Ext Volt 2 = yes, Ext Volt 3 = yes
* echo commands = yes
* output format = raw HEX
* S>
* 
* SeacatPlus V 1.6a  SERIAL NO. 5061    15 Aug 2007  15:32:18
* temperature:  05-oct-06
*     TA0 = 1.254184e-03
*     TA1 = 2.596730e-04
*     TA2 = 5.165612e-07
*     TA3 = 1.318931e-07
*     TOFFSET = 0.000000e+00
* conductivity:  05-oct-06
*     G = -9.978144e-01
*     H = 1.555200e-01
*     I = -4.839108e-04
*     J = 6.121100e-05
*     CF0 = 2.539936e+03
*     CPCOR = -9.570000e-08
*     CTCOR = 3.250000e-06
*     CSLOPE = 1.000000e+00
* pressure S/N = 2362539, range = 870 psia:  24-aug-06
*     PA0 = 2.171091e-01
*     PA1 = 2.647085e-03
*     PA2 = 1.419397e-11
*     PTCA0 = 5.242437e+05
*     PTCA1 = 7.545345e+00
*     PTCA2 = -1.835354e-01
*     PTCB0 = 2.537125e+01
*     PTCB1 = -1.750000e-03
*     PTCB2 = 0.000000e+00
*     PTEMPA0 = -5.753989e+01
*     PTEMPA1 = 5.235813e+01
*     PTEMPA2 = -4.015521e-02
*     POFFSET = 0.000000e+00
* volt 0: offset = -4.682842e-02, slope = 1.249147e+00
* volt 1: offset = -4.695158e-02, slope = 1.248145e+00
* volt 2: offset = -4.685263e-02, slope = 1.248783e+00
* volt 3: offset = -4.690316e-02, slope = 1.249508e+00
*     EXTFREQSF = 1.000002e+00
* dh
* cast 134 26 Jul 2007 11:12:25 samples 131891 to 132819, avg = 1, stop = mag switch
* S> 
# nquan = 10
# nvalues = 95                          
# units = specified
# name 0 = depSM: Depth [salt water, m]
# name 1 = tv290C: Temperature [ITS-90, deg C]
# name 2 = sal00: Salinity [PSU]
# name 3 = sbeox0Mg/L: Oxygen, SBE 43 [mg/l]
# name 4 = sbeox0PS: Oxygen, SBE 43 [% saturation]
# name 5 = sigma-t00: Density [sigma-t, Kg/m^3 ]
# name 6 = par: PAR/Irradiance, Biospherical/Licor
# name 7 = prdM: Pressure, Strain Gauge [db]
# name 8 = flECO-AFL: Fluorescence, Wetlab ECO-AFL/FL [mg/m^3]
# name 9 = flag: flag
# span 0 =      1.000,     50.000       
# span 1 =     9.3918,    11.4404       
# span 2 =    27.9275,    30.6549       
# span 3 =    8.41588,    9.25056       
# span 4 =   91.88725,   99.35405       
# span 5 =    21.1996,    23.6580       
# span 6 = 1.5463e+00, 3.6048e+02       
# span 7 =      1.062,     50.154       
# span 8 =     0.5991,     0.9755       
# span 9 = 0.0000e+00, 0.0000e+00       
# interval = meters: 1                  
# start_time = Jul 26 2007 11:12:25
# bad_flag = -9.990e-29
# sensor 0 = Frequency 0  temperature, 5061, 05-Oct-06
# sensor 1 = Frequency 1  conductivity, 5061, 05-Oct-06, cpcor = -9.5700e-08
# sensor 2 = Pressure Number
# sensor 3 = Extrnl Volt  0  irradiance (PAR), primary, 4751, 08/10/06
# sensor 4 = Extrnl Volt  1  Oxygen, SBE, primary, 1081, 10/24/06
# sensor 5 = Extrnl Volt  2  WET Labs, ECO_AFL
# sensor 6 = Extrnl Volt  3  userpoly 0, 0627, 10/11/06
# datcnv_date = Oct 15 2007 14:49:53, 5.37e
# datcnv_in = I:\bob d\OTF_GEM\2007\ctd-07134.hex I:\Willette\OTF\CTD\5061.con
# datcnv_skipover = 0
# filter_date = Oct 15 2007 15:02:41, 5.37e
# filter_in = I:\Willette\OTF\CTD\2007\CTD Data\ctd-07134.cnv
# filter_low_pass_tc_A = 1.000
# filter_low_pass_tc_B = 0.150
# filter_low_pass_A_vars = prdM
# filter_low_pass_B_vars =
# loopedit_date = Oct 15 2007 15:06:59, 5.37e
# loopedit_in = I:\Willette\OTF\CTD\2007\CTD Data\ctd-07134.cnv
# loopedit_minVelocity = 0.250                                                                                            
# loopedit_surfaceSoak: minDepth = 5.0, maxDepth = 20, useDeckPress = 1                                                   
# loopedit_excl_bad_scans = yes
# alignctd_date = Oct 15 2007 15:14:24, 5.37e
# alignctd_in = I:\Willette\OTF\CTD\2007\CTD Data\ctd-07134.cnv
# alignctd_adv = tv290C 0.500, sbeox0Mg/L 4.000, sbeox0PS 4.000                                                                                                                                                                      
# binavg_date = Oct 15 2007 15:18:52, 5.37e
# binavg_in = I:\Willette\OTF\CTD\2007\CTD Data\ctd-07134.cnv
# binavg_bintype = meters
# binavg_binsize = 1
# binavg_excl_bad_scans = yes
# binavg_skipover = 0
# binavg_surface_bin = no, min = 0.000, max = 0.000, value = 0.000
# file_type = ascii
*END*
      5.000    11.4361    27.9275    8.41588   91.88725    21.1996 1.0235e+02      4.996     0.8511 0.0000e+00
      6.000    11.4166    27.9418    8.50187   92.66218    21.2141 7.7936e+01      6.013     0.8070 0.0000e+00
      7.000    11.3404    28.0468    8.57862   93.31799    21.3052 5.8770e+01      7.091     0.7131 0.0000e+00
      8.000    11.1998    28.3105    8.64613   93.90422    21.5291 4.4511e+01      8.163     0.6399 0.0000e+00
      9.000    11.0993    28.4626    8.69430   94.34704    21.6672 3.4546e+01      9.180     0.5991 0.0000e+00
     10.000    10.9873    28.6039    8.73218   94.68155    21.7938 2.6863e+01     10.120     0.6093 0.0000e+00
     11.000    10.9239    28.6989    8.76652   95.02379    21.8815 2.1402e+01     11.056     0.6313 0.0000e+00
     12.000    10.8533    28.8080    8.80412   95.42326    21.9792 1.5036e+01     12.128     0.6444 0.0000e+00
     13.000    10.7826    28.9122    8.83705   95.76980    22.0698 1.1126e+01     13.197     0.6573 0.0000e+00
     14.000    10.7514    28.9896    8.86034   95.99447    22.1404 8.5240e+00     14.173     0.6538 0.0000e+00
     15.000    10.7474    28.9993    8.88022   96.19746    22.1493 6.6386e+00     15.102     0.6444 0.0000e+00
     16.000    10.7413    29.0100    8.89974   96.40822    22.1585 5.2728e+00     16.078     0.6423 0.0000e+00
     17.000    10.7200    29.0337    8.91712   96.59491    22.1792 4.1998e+00     17.199     0.6473 0.0000e+00
     18.000    10.7042    29.0621    8.92830   96.71396    22.2050 3.4190e+00     18.315     0.7068 0.0000e+00
     19.000    10.7028    29.0690    8.92945   96.72447    22.2112 2.8488e+00     19.248     0.7287 0.0000e+00
     20.000    10.7027    29.0698    8.93358   96.76553    22.2119 2.4412e+00     20.194     0.7404 0.0000e+00
     21.000    10.7013    29.0710    8.94643   96.90389    22.2130 2.1765e+00     21.141     0.7609 0.0000e+00
     22.000    10.6997    29.0727    8.96007   97.05224    22.2145 1.9815e+00     22.155     0.7624 0.0000e+00
     23.000    10.6979    29.0759    8.96482   97.10201    22.2173 1.8436e+00     23.223     0.7571 0.0000e+00
     24.000    10.6961    29.0777    8.97202   97.17326    22.2190 1.7501e+00     24.212     0.7948 0.0000e+00
     25.000    10.6973    29.0743    8.98205   97.27132    22.2165 1.6856e+00     25.170     0.7705 0.0000e+00
     26.000    10.6965    29.0738    8.98764   97.32294    22.2160 1.6412e+00     26.180     0.7634 0.0000e+00
     27.000    10.6908    29.0807    8.99736   97.41709    22.2218 1.6099e+00     27.330     0.7680 0.0000e+00
     28.000    10.6810    29.0952    9.00815   97.52009    22.2345 1.5905e+00     28.293     0.7698 0.0000e+00
     29.000    10.6731    29.1086    9.00602   97.49342    22.2462 1.5771e+00     29.315     0.7556 0.0000e+00
     30.000    10.6648    29.1227    9.00861   97.52416    22.2588 1.5682e+00     30.305     0.7570 0.0000e+00
     31.000    10.6565    29.1348    9.01608   97.60299    22.2693 1.5620e+00     31.193     0.7690 0.0000e+00
     32.000    10.6487    29.1507    9.02534   97.70084    22.2835 1.5569e+00     32.268     0.7977 0.0000e+00
     33.000    10.6501    29.1494    9.02878   97.74118    22.2827 1.5537e+00     33.285     0.7878 0.0000e+00
     34.000    10.6488    29.1504    9.02709   97.69505    22.2834 1.5516e+00     34.352     0.7883 0.0000e+00
     35.000    10.6461    29.1547    9.03247   97.74443    22.2870 1.5503e+00     35.373     0.7939 0.0000e+00
     36.000    10.6443    29.1587    9.03354   97.73626    22.2906 1.5491e+00     36.405     0.8083 0.0000e+00
     37.000    10.6241    29.1874    9.03546   97.69340    22.3141 1.5483e+00     37.417     0.8070 0.0000e+00
     38.000    10.6125    29.2152    9.03450   97.48571    22.3393 1.5481e+00     38.366     0.7966 0.0000e+00
     39.000    10.6048    29.2270    9.03603   97.25527    22.3496 1.5477e+00     39.341     0.8226 0.0000e+00
     40.000    10.5617    29.2937    9.04116   96.88912    22.4050 1.5475e+00     40.334     0.8319 0.0000e+00
     41.000    10.4717    29.4008    9.06115   96.64211    22.4983 1.5474e+00     41.373     0.8363 0.0000e+00
     42.000    10.2782    29.5979    9.08627   96.68913    22.6773 1.5472e+00     42.496     0.8292 0.0000e+00
     43.000    10.0516    29.8071    9.11597   96.95218    22.8687 1.5468e+00     43.471     0.8174 0.0000e+00
     44.000     9.7836    30.1032    9.14213   97.20364    23.1403 1.5468e+00     44.369     0.7945 0.0000e+00
     45.000     9.5473    30.4005    9.16291   97.40084    23.4157 1.5470e+00     45.312     0.7907 0.0000e+00
     46.000     9.4517    30.5760    9.20225   97.81064    23.5826 1.5470e+00     46.409     0.7968 0.0000e+00
     47.000     9.4247    30.6134    9.20407   97.82807    23.6185 1.5471e+00     47.409     0.8288 0.0000e+00
     48.000     9.4034    30.6358    9.18798   97.65558    23.6396 1.5470e+00     48.335     0.8622 0.0000e+00
     49.000     9.3962    30.6473    9.18212   97.58589    23.6508 1.5470e+00     49.263     0.8782 0.0000e+00
     50.000     9.3918    30.6549    9.22367   98.03087    23.6580 1.5742e+00     50.154     0.9755 0.0000e+00
     49.000     9.3938    30.6498    9.24860   98.32811    23.6535 1.5527e+00     49.370     0.9533 0.0000e+00
     48.000     9.3963    30.6478    9.24217   98.28965    23.6517 1.5473e+00     48.441     0.9223 0.0000e+00
     47.000     9.4146    30.6316    9.24449   98.33019    23.6371 1.5475e+00     47.452     0.9303 0.0000e+00
     46.000     9.4343    30.6064    9.24526   98.51295    23.6137 1.5472e+00     46.416     0.9229 0.0000e+00
     45.000     9.4459    30.5971    9.25056   99.06244    23.6053 1.5467e+00     45.399     0.9146 0.0000e+00
     44.000     9.5287    30.5353    9.24295   99.35405    23.5497 1.5464e+00     44.410     0.8562 0.0000e+00
     43.000     9.8284    30.2312    9.21953   99.31178    23.2733 1.5467e+00     43.484     0.8168 0.0000e+00
     42.000    10.1693    29.8100    9.17594   99.05376    22.8840 1.5463e+00     42.336     0.7978 0.0000e+00
     41.000    10.3195    29.6413    9.15640   98.90096    22.7273 1.5465e+00     41.447     0.8309 0.0000e+00
     40.000    10.4361    29.4943    9.12837   98.68250    22.5877 1.5467e+00     40.275     0.8663 0.0000e+00
     39.000    10.4775    29.4422    9.12197   98.64040    22.5420 1.5469e+00     39.480     0.8623 0.0000e+00
     38.000    10.5422    29.3331    9.11423   98.60938    22.4446 1.5467e+00     38.346     0.8718 0.0000e+00
     37.000    10.5871    29.2579    9.10610   98.54578    22.3795 1.5473e+00     37.327     0.8583 0.0000e+00
     36.000    10.6160    29.2006    9.10443   98.53719    22.3286 1.5479e+00     36.331     0.8381 0.0000e+00
     35.000    10.6289    29.1775    9.10230   98.51447    22.3083 1.5486e+00     35.381     0.8305 0.0000e+00
     34.000    10.6339    29.1686    9.09548   98.45934    22.3001 1.5503e+00     34.285     0.8285 0.0000e+00
     33.000    10.6365    29.1675    9.09001   98.41676    22.2994 1.5518e+00     33.266     0.8192 0.0000e+00
     32.000    10.6565    29.1334    9.09085   98.42899    22.2698 1.5555e+00     32.359     0.7951 0.0000e+00
     31.000    10.6667    29.1147    9.09944   98.53120    22.2530 1.5596e+00     31.261     0.7976 0.0000e+00
     30.000    10.6716    29.1071    9.09901   98.53215    22.2464 1.5661e+00     30.269     0.7906 0.0000e+00
     29.000    10.6776    29.0972    9.09558   98.50048    22.2376 1.5753e+00     29.303     0.7929 0.0000e+00
     28.000    10.6816    29.0901    9.09298   98.47898    22.2313 1.5885e+00     28.245     0.7663 0.0000e+00
     27.000    10.6890    29.0784    9.09451   98.49991    22.2212 1.6089e+00     27.262     0.8005 0.0000e+00
     26.000    10.6931    29.0703    9.08466   98.39736    22.2140 1.6389e+00     26.210     0.8138 0.0000e+00
     25.000    10.6963    29.0660    9.08291   98.37992    22.2102 1.6782e+00     25.242     0.7825 0.0000e+00
     24.000    10.6976    29.0652    9.08946   98.45091    22.2093 1.7396e+00     24.277     0.7732 0.0000e+00
     23.000    10.6988    29.0641    9.07542   98.29909    22.2082 1.8374e+00     23.132     0.7793 0.0000e+00
     22.000    10.6987    29.0638    9.08000   98.34888    22.2080 1.9588e+00     22.237     0.7655 0.0000e+00
     21.000    10.6995    29.0618    9.08912   98.44911    22.2063 2.1313e+00     21.208     0.7735 0.0000e+00
     20.000    10.6997    29.0615    9.08590   98.42164    22.2060 2.4126e+00     20.192     0.7653 0.0000e+00
     19.000    10.7018    29.0595    9.08094   98.38126    22.2043 2.7819e+00     19.148     0.7784 0.0000e+00
     18.000    10.7082    29.0510    9.08089   98.39075    22.1968 3.2411e+00     18.168     0.7604 0.0000e+00
     17.000    10.7196    29.0322    9.08326   98.42114    22.1805 3.8959e+00     17.187     0.7450 0.0000e+00
     16.000    10.7286    29.0159    9.06595   98.24045    22.1660 4.9246e+00     16.157     0.7273 0.0000e+00
     15.000    10.7331    29.0080    9.06726   98.25959    22.1590 6.3029e+00     15.086     0.7155 0.0000e+00
     14.000    10.7387    28.9985    9.07726   98.37611    22.1508 8.0078e+00     14.173     0.6977 0.0000e+00
     13.000    10.7436    28.9897    9.08301   98.45866    22.1431 1.0630e+01     13.140     0.7185 0.0000e+00
     12.000    10.7566    28.9684    9.07433   98.41055    22.1250 1.4441e+01     12.086     0.7113 0.0000e+00
     11.000    10.7727    28.9396    9.07129   98.48144    22.0997 1.9511e+01     11.119     0.6898 0.0000e+00
     10.000    10.8333    28.8595    9.06459   98.49374    22.0310 2.5953e+01     10.058     0.6870 0.0000e+00
      9.000    10.9044    28.7432    9.06222   98.56795    21.9273 3.3783e+01      9.115     0.6891 0.0000e+00
      8.000    10.9685    28.6582    9.05106   98.57722    21.8516 4.4754e+01      8.068     0.6553 0.0000e+00
      7.000    11.0543    28.5417    9.04682   98.64467    21.7453 5.8348e+01      7.033     0.6517 0.0000e+00
      6.000    11.1660    28.3715    9.03237   98.61058    21.5979 7.7526e+01      6.075     0.6495 0.0000e+00
      5.000    11.2833    28.1595    9.01512   98.47928    21.4125 1.0332e+02      5.034     0.7437 0.0000e+00
      4.000    11.3800    27.9926    9.00425   98.39459    21.2653 1.3190e+02      4.049     0.8136 0.0000e+00
      3.000    11.4106    27.9480    9.00239   98.39420    21.2219 1.6832e+02      3.037     0.8668 0.0000e+00
      2.000    11.4293    27.9399    8.97177   98.07322    21.2132 2.1042e+02      2.027     0.8435 0.0000e+00
      1.000    11.4404    27.9292    8.98638   96.69087    21.2021 3.6048e+02      1.062     0.7667 0.0000e+00
