* Sea-Bird SBE19plus Data File:
* FileName = C:\data\otf\2007\ctd-07053.hex
* Software Version 1.55
* Temperature SN =  5061
* Conductivity SN =  5061
* System UpLoad Time = Aug 15 2007 16:11:23
* ds
* SeacatPlus V 1.6a  SERIAL NO. 5061    15 Aug 2007  15:31:53
* vbatt = 10.9, vlith =  8.7, ioper =  61.6 ma, ipump =  57.5 ma, 
* iext01 =  95.2 ma
* iext23 =  58.1 ma
* 
* status = not logging
* number of scans to average = 1
* samples = 153039, free = 288466, casts = 154
* mode = profile, minimum cond freq = 3000, pump delay = 60 sec
* autorun = no, ignore magnetic switch = no
* battery type = alkaline, battery cutoff =  7.3 volts
* pressure sensor = strain gauge, range = 870.0
* SBE 38 = no, Gas Tension Device = no
* Ext Volt 0 = yes, Ext Volt 1 = yes, Ext Volt 2 = yes, Ext Volt 3 = yes
* echo commands = yes
* output format = raw HEX
* S>
* 
* SeacatPlus V 1.6a  SERIAL NO. 5061    15 Aug 2007  15:32:18
* temperature:  05-oct-06
*     TA0 = 1.254184e-03
*     TA1 = 2.596730e-04
*     TA2 = 5.165612e-07
*     TA3 = 1.318931e-07
*     TOFFSET = 0.000000e+00
* conductivity:  05-oct-06
*     G = -9.978144e-01
*     H = 1.555200e-01
*     I = -4.839108e-04
*     J = 6.121100e-05
*     CF0 = 2.539936e+03
*     CPCOR = -9.570000e-08
*     CTCOR = 3.250000e-06
*     CSLOPE = 1.000000e+00
* pressure S/N = 2362539, range = 870 psia:  24-aug-06
*     PA0 = 2.171091e-01
*     PA1 = 2.647085e-03
*     PA2 = 1.419397e-11
*     PTCA0 = 5.242437e+05
*     PTCA1 = 7.545345e+00
*     PTCA2 = -1.835354e-01
*     PTCB0 = 2.537125e+01
*     PTCB1 = -1.750000e-03
*     PTCB2 = 0.000000e+00
*     PTEMPA0 = -5.753989e+01
*     PTEMPA1 = 5.235813e+01
*     PTEMPA2 = -4.015521e-02
*     POFFSET = 0.000000e+00
* volt 0: offset = -4.682842e-02, slope = 1.249147e+00
* volt 1: offset = -4.695158e-02, slope = 1.248145e+00
* volt 2: offset = -4.685263e-02, slope = 1.248783e+00
* volt 3: offset = -4.690316e-02, slope = 1.249508e+00
*     EXTFREQSF = 1.000002e+00
* dh
* cast  53 11 Jul 2007 11:12:01 samples 43614 to 43851, avg = 4, stop = mag switch
* S> 
# nquan = 10
# nvalues = 130                         
# units = specified
# name 0 = depSM: Depth [salt water, m]
# name 1 = tv290C: Temperature [ITS-90, deg C]
# name 2 = sal00: Salinity [PSU]
# name 3 = sbeox0Mg/L: Oxygen, SBE 43 [mg/l]
# name 4 = sbeox0PS: Oxygen, SBE 43 [% saturation]
# name 5 = sigma-t00: Density [sigma-t, Kg/m^3 ]
# name 6 = par: PAR/Irradiance, Biospherical/Licor
# name 7 = prdM: Pressure, Strain Gauge [db]
# name 8 = flECO-AFL: Fluorescence, Wetlab ECO-AFL/FL [mg/m^3]
# name 9 = flag: flag
# span 0 =      1.000,     67.000       
# span 1 =     8.2998,     9.0211       
# span 2 =    31.3442,    31.5589       
# span 3 =    8.85876,   11.65489       
# span 4 =   92.69792,  102.29649       
# span 5 =    24.2915,    24.5296       
# span 6 = 1.5482e+00, 1.0316e+03       
# span 7 =      2.133,     66.402       
# span 8 =     0.2874,     1.5483       
# span 9 = 0.0000e+00, 0.0000e+00       
# interval = meters: 1                  
# start_time = Jul 11 2007 11:12:01
# bad_flag = -9.990e-29
# sensor 0 = Frequency 0  temperature, 5061, 05-Oct-06
# sensor 1 = Frequency 1  conductivity, 5061, 05-Oct-06, cpcor = -9.5700e-08
# sensor 2 = Pressure Number
# sensor 3 = Extrnl Volt  0  irradiance (PAR), primary, 4751, 08/10/06
# sensor 4 = Extrnl Volt  1  Oxygen, SBE, primary, 1081, 10/24/06
# sensor 5 = Extrnl Volt  2  WET Labs, ECO_AFL
# sensor 6 = Extrnl Volt  3  userpoly 0, 0627, 10/11/06
# datcnv_date = Oct 15 2007 14:49:45, 5.37e
# datcnv_in = I:\bob d\OTF_GEM\2007\ctd-07053.hex I:\Willette\OTF\CTD\5061.con
# datcnv_skipover = 0
# filter_date = Oct 15 2007 15:02:24, 5.37e
# filter_in = I:\Willette\OTF\CTD\2007\CTD Data\ctd-07053.cnv
# filter_low_pass_tc_A = 1.000
# filter_low_pass_tc_B = 0.150
# filter_low_pass_A_vars = prdM
# filter_low_pass_B_vars =
# loopedit_date = Oct 15 2007 15:06:47, 5.37e
# loopedit_in = I:\Willette\OTF\CTD\2007\CTD Data\ctd-07053.cnv
# loopedit_minVelocity = 0.250                                                                                            
# loopedit_surfaceSoak: minDepth = 5.0, maxDepth = 20, useDeckPress = 1                                                   
# loopedit_excl_bad_scans = yes
# alignctd_date = Oct 15 2007 15:14:15, 5.37e
# alignctd_in = I:\Willette\OTF\CTD\2007\CTD Data\ctd-07053.cnv
# alignctd_adv = tv290C 0.500, sbeox0Mg/L 4.000, sbeox0PS 4.000                                                                                                                                                                      
# binavg_date = Oct 15 2007 15:18:44, 5.37e
# binavg_in = I:\Willette\OTF\CTD\2007\CTD Data\ctd-07053.cnv
# binavg_bintype = meters
# binavg_binsize = 1
# binavg_excl_bad_scans = yes
# binavg_skipover = 0
# binavg_surface_bin = no, min = 0.000, max = 0.000, value = 0.000
# file_type = ascii
*END*
      4.000     9.0211    31.3720    9.19776   96.33696    24.2915 1.9441e+02      3.515     0.2874 0.0000e+00
      5.000     8.5908    31.3793    8.89582   93.10082    24.3247 1.6875e+02      6.206     0.4435 0.0000e+00
      6.000     8.5328    31.3680    8.85876   92.69792    24.3342 1.3801e+02      7.052     0.4948 0.0000e+00
      7.000     8.5101    31.3905    8.99121   94.08031    24.3628 1.1660e+02      8.016     0.6535 0.0000e+00
      8.000     8.5149    31.3847    8.99947   94.16844    24.3602 9.5829e+01      8.613     0.6970 0.0000e+00
      9.000     8.5090    31.4006    9.06290   94.81967    24.3736 7.9717e+01      9.457     0.6521 0.0000e+00
     10.000     8.5040    31.3935    9.20693   96.32312    24.3684 6.6904e+01     10.351     0.6608 0.0000e+00
     11.000     8.5019    31.3945    9.32399   97.54240    24.3702 5.5451e+01     11.183     0.6768 0.0000e+00
     12.000     8.5022    31.3940    9.41716   98.51241    24.3704 4.5455e+01     12.167     0.7268 0.0000e+00
     13.000     8.4979    31.3907    9.48524   99.21550    24.3680 3.7472e+01     13.243     0.7022 0.0000e+00
     14.000     8.5073    31.3804    9.51462   99.49669    24.3598 3.1300e+01     14.227     0.6104 0.0000e+00
     15.000     8.5070    31.4163    9.54050   99.79186    24.3880 2.6085e+01     15.230     0.6291 0.0000e+00
     16.000     8.4964    31.3673    9.56597  100.06112    24.3474 2.1920e+01     16.630     0.6127 0.0000e+00
     17.000     8.5037    31.4009    9.58077  100.22181    24.3761 1.8606e+01     17.445     0.5987 0.0000e+00
     18.000     8.4947    31.3776    9.59394  100.35993    24.3564 1.5642e+01     18.710     0.6017 0.0000e+00
     19.000     8.4940    31.3769    9.60133  100.42666    24.3573 1.3326e+01     19.576     0.6172 0.0000e+00
     20.000     8.4918    31.3848    9.61144  100.52262    24.3645 1.1276e+01     20.511     0.6027 0.0000e+00
     21.000     8.4900    31.3837    9.62199  100.63001    24.3636 9.6292e+00     21.545     0.6014 0.0000e+00
     22.000     8.4888    31.3792    9.62939  100.70434    24.3604 8.3321e+00     22.457     0.5974 0.0000e+00
     23.000     8.4863    31.3757    9.63496  100.75838    24.3579 7.2060e+00     23.331     0.5977 0.0000e+00
     24.000     8.4841    31.3753    9.63999  100.80915    24.3578 6.2207e+00     24.266     0.5873 0.0000e+00
     25.000     8.4810    31.3775    9.64676  100.87944    24.3599 5.3966e+00     25.325     0.5950 0.0000e+00
     26.000     8.4722    31.3791    9.65181  100.93119    24.3615 4.7565e+00     26.342     0.6190 0.0000e+00
     27.000 -9.990e-29 -9.990e-29 -9.990e-29 -9.990e-29 -9.990e-29 -9.990e-29 -9.990e-29 -9.990e-29 -9.990e-29
     28.000     8.4765    31.3869    9.66145  101.03148    24.3691 3.7740e+00     28.209     0.6285 0.0000e+00
     29.000 -9.990e-29 -9.990e-29 -9.990e-29 -9.990e-29 -9.990e-29 -9.990e-29 -9.990e-29 -9.990e-29 -9.990e-29
     30.000     8.4785    31.3889    9.66942  101.11728    24.3710 3.2293e+00     29.713     0.6155 0.0000e+00
     31.000     8.4832    31.3821    9.66969  101.09807    24.3644 2.8391e+00     31.199     0.6346 0.0000e+00
     32.000 -9.990e-29 -9.990e-29 -9.990e-29 -9.990e-29 -9.990e-29 -9.990e-29 -9.990e-29 -9.990e-29 -9.990e-29
     33.000     8.4829    31.3803    9.67794  101.17258    24.3628 2.5209e+00     32.671     0.6217 0.0000e+00
     34.000     8.4713    31.3778    9.67986  101.17239    24.3604 2.2855e+00     34.272     0.6423 0.0000e+00
     35.000     8.4701    31.3847    9.68406  101.20090    24.3670 2.1714e+00     35.292     0.6220 0.0000e+00
     36.000     8.4675    31.3885    9.68963  101.24821    24.3707 2.0674e+00     36.302     0.6096 0.0000e+00
     37.000     8.4642    31.3898    9.69744  101.33148    24.3719 1.9797e+00     37.407     0.5880 0.0000e+00
     38.000     8.4641    31.3936    9.70491  101.40221    24.3754 1.9101e+00     38.517     0.5882 0.0000e+00
     39.000     8.4633    31.3961    9.70636  101.41071    24.3778 1.8508e+00     39.501     0.6016 0.0000e+00
     40.000     8.4626    31.3956    9.70639  101.42696    24.3773 1.8019e+00     40.494     0.5849 0.0000e+00
     41.000     8.4627    31.3968    9.70658  101.43424    24.3784 1.7593e+00     41.424     0.5653 0.0000e+00
     42.000     8.4626    31.3978    9.70756  101.35090    24.3793 1.7204e+00     42.761     0.5950 0.0000e+00
     43.000     8.4621    31.3973    9.70982  101.26918    24.3789 1.6959e+00     43.500     0.5848 0.0000e+00
     44.000     8.4472    31.3974    9.71471  101.32448    24.3789 1.6699e+00     44.440     0.5825 0.0000e+00
     45.000     8.4462    31.4042    9.72336  101.40464    24.3844 1.6479e+00     45.690     0.6169 0.0000e+00
     46.000     8.4391    31.4213    9.72602  101.44299    24.4001 1.6343e+00     46.548     0.6165 0.0000e+00
     47.000     8.4349    31.4227    9.72459  101.41840    24.4011 1.6197e+00     47.373     0.6134 0.0000e+00
     48.000     8.4215    31.4305    9.72626  101.43602    24.4084 1.6071e+00     48.686     0.6302 0.0000e+00
     49.000     8.4169    31.4342    9.73170  101.49902    24.4118 1.5988e+00     49.518     0.6459 0.0000e+00
     50.000     8.4126    31.4427    9.73571  101.54112    24.4199 1.5903e+00     50.395     0.6078 0.0000e+00
     51.000     8.4142    31.4500    9.75066  101.69329    24.4269 1.5828e+00     51.593     0.6380 0.0000e+00
     52.000     8.4106    31.4535    9.75692  101.75920    24.4302 1.5777e+00     52.449     0.6330 0.0000e+00
     53.000     8.4073    31.4531    9.76431  101.83631    24.4298 1.5727e+00     53.356     0.6430 0.0000e+00
     54.000     8.4127    31.4559    9.76928  101.88748    24.4324 1.5683e+00     54.471     0.6312 0.0000e+00
     55.000     8.4169    31.4588    9.76698  101.86259    24.4351 1.5650e+00     55.399     0.6344 0.0000e+00
     56.000     8.3935    31.4551    9.76666  101.85921    24.4317 1.5622e+00     56.323     0.6774 0.0000e+00
     57.000     8.3397    31.4507    9.77005  101.89474    24.4275 1.5597e+00     57.281     0.8558 0.0000e+00
     58.000 -9.990e-29 -9.990e-29 -9.990e-29 -9.990e-29 -9.990e-29 -9.990e-29 -9.990e-29 -9.990e-29 -9.990e-29
     59.000     8.3057    31.4839    9.77288  101.92477    24.4589 1.5569e+00     58.661     1.1962 0.0000e+00
     60.000     8.3028    31.5517    9.76679  101.86131    24.5227 1.5543e+00     60.136     1.1898 0.0000e+00
     61.000     8.3004    31.5535    9.75441  101.73501    24.5245 1.5535e+00     61.032     1.3111 0.0000e+00
     62.000     8.2998    31.5526    9.75487  101.74134    24.5238 1.5524e+00     62.062     1.1562 0.0000e+00
     63.000     8.3030    31.5561    9.76290  101.82251    24.5271 1.5515e+00     62.958     1.0322 0.0000e+00
     64.000     8.3038    31.5560    9.76504  101.84206    24.5271 1.5508e+00     63.701     1.0324 0.0000e+00
     65.000     8.3020    31.5524    9.76430  101.83471    24.5238 1.5505e+00     64.500     1.0556 0.0000e+00
     66.000     8.3016    31.5525    9.76474  101.83914    24.5237 1.5500e+00     65.172     1.0345 0.0000e+00
     67.000     8.3017    31.5543    9.76535  101.89705    24.5253 1.5482e+00     66.402     0.8833 0.0000e+00
     66.000     8.3009    31.5561    9.74954  101.81760    24.5270 1.5496e+00     66.038     0.9054 0.0000e+00
     65.000     8.3016    31.5555    9.75522  101.90717    24.5264 1.5505e+00     65.170     0.8729 0.0000e+00
     64.000     8.3003    31.5548    9.75662  101.93915    24.5258 1.5518e+00     64.327     0.8268 0.0000e+00
     63.000     8.3142    31.5589    9.74594  101.83906    24.5296 1.5510e+00     63.069     0.8369 0.0000e+00
     62.000     8.3560    31.5396    9.74279  101.80776    24.5116 1.5520e+00     62.424     0.8446 0.0000e+00
     61.000     8.3817    31.5139    9.74005  101.78483    24.4873 1.5529e+00     61.589     0.8380 0.0000e+00
     60.000     8.3817    31.4811    9.74475  101.83463    24.4565 1.5542e+00     60.580     0.7910 0.0000e+00
     59.000     8.3777    31.4803    9.73668  101.75391    24.4559 1.5554e+00     59.478     0.8304 0.0000e+00
     58.000     8.3923    31.4831    9.73580  101.74738    24.4585 1.5572e+00     58.546     0.8292 0.0000e+00
     57.000     8.4054    31.4716    9.73557  101.74508    24.4476 1.5590e+00     57.552     0.8044 0.0000e+00
     56.000     8.4120    31.4606    9.73977  101.78782    24.4370 1.5619e+00     56.612     0.8563 0.0000e+00
     55.000     8.4146    31.4540    9.74953  101.89252    24.4307 1.5643e+00     55.553     0.8452 0.0000e+00
     54.000     8.4172    31.4518    9.74814  101.88243    24.4287 1.5683e+00     54.522     0.8269 0.0000e+00
     53.000     8.4191    31.4492    9.74389  101.84634    24.4262 1.5724e+00     53.474     0.8049 0.0000e+00
     52.000     8.4202    31.4469    9.74194  101.84807    24.4240 1.5773e+00     52.501     0.8265 0.0000e+00
     51.000     8.4223    31.4470    9.73980  101.85262    24.4240 1.5829e+00     51.484     0.8387 0.0000e+00
     50.000     8.4231    31.4450    9.73610  101.82319    24.4222 1.5901e+00     50.525     0.8501 0.0000e+00
     49.000     8.4224    31.4439    9.73774  101.84500    24.4212 1.5985e+00     49.388     0.8565 0.0000e+00
     48.000     8.4238    31.4446    9.73418  101.80391    24.4218 1.6086e+00     48.364     0.8811 0.0000e+00
     47.000     8.4253    31.4436    9.73106  101.76211    24.4212 1.6199e+00     47.289     0.7766 0.0000e+00
     46.000     8.4302    31.4400    9.73049  101.75284    24.4177 1.6348e+00     46.345     0.8855 0.0000e+00
     45.000     8.4368    31.4368    9.73092  101.77000    24.4145 1.6516e+00     45.476     0.8634 0.0000e+00
     44.000     8.4557    31.4294    9.73390  101.81629    24.4079 1.6729e+00     44.323     0.8980 0.0000e+00
     43.000     8.4664    31.4116    9.73682  101.85406    24.3913 1.6964e+00     43.291     0.9179 0.0000e+00
     42.000     8.4674    31.4043    9.73704  101.85901    24.3841 1.7266e+00     42.434     0.8354 0.0000e+00
     41.000     8.4691    31.4012    9.73452  101.83357    24.3813 1.7643e+00     41.431     0.8517 0.0000e+00
     40.000     8.4662    31.3991    9.72913  101.78339    24.3793 1.8096e+00     40.395     0.8563 0.0000e+00
     39.000     8.4605    31.4012    9.72735  101.77194    24.3811 1.8607e+00     39.210     0.9701 0.0000e+00
     38.000     8.4566    31.4071    9.73023  101.80162    24.3866 1.9226e+00     38.496     0.9040 0.0000e+00
     37.000     8.4673    31.4117    9.72969  101.79587    24.3910 1.9997e+00     37.298     0.9328 0.0000e+00
     36.000     8.4767    31.4017    9.73055  101.80579    24.3819 2.0954e+00     36.358     0.9781 0.0000e+00
     35.000     8.4833    31.3858    9.72658  101.76270    24.3678 2.2037e+00     35.305     0.9148 0.0000e+00
     34.000     8.4859    31.3766    9.72160  101.71289    24.3598 2.3372e+00     34.351     0.9687 0.0000e+00
     33.000     8.4863    31.3722    9.71489  101.64491    24.3558 2.5047e+00     33.373     0.9345 0.0000e+00
     32.000     8.4902    31.3713    9.72111  101.71181    24.3550 2.7122e+00     32.277     0.9206 0.0000e+00
     31.000     8.4935    31.3677    9.71957  101.70215    24.3517 2.9597e+00     31.181     1.0020 0.0000e+00
     30.000     8.4935    31.3653    9.72233  101.73253    24.3493 3.2348e+00     30.285     1.0127 0.0000e+00
     29.000     8.4938    31.3646    9.72002  101.71110    24.3486 3.5836e+00     29.266     1.0229 0.0000e+00
     28.000     8.4944    31.3646    9.72135  101.72656    24.3486 4.0144e+00     28.223     1.0728 0.0000e+00
     27.000     8.4935    31.3633    9.72208  101.73796    24.3475 4.5201e+00     27.168     1.1277 0.0000e+00
     26.000     8.4936    31.3646    9.71118  101.62473    24.3487 5.1641e+00     26.260     1.0129 0.0000e+00
     25.000     8.4950    31.3677    9.70986  101.61324    24.3512 5.9286e+00     25.077     1.0866 0.0000e+00
     24.000     8.4947    31.3677    9.71036  101.61906    24.3510 6.8142e+00     24.311     1.0332 0.0000e+00
     23.000     8.5009    31.3646    9.71991  101.72166    24.3485 7.9550e+00     23.008     1.0614 0.0000e+00
     22.000     8.4987    31.3637    9.72068  101.72996    24.3473 9.3348e+00     22.262     1.0501 0.0000e+00
     21.000     8.4994    31.3670    9.71566  101.67973    24.3498 1.1014e+01     20.857     1.1080 0.0000e+00
     20.000     8.4992    31.3693    9.71846  101.71052    24.3516 1.2952e+01     20.244     1.0566 0.0000e+00
     19.000     8.5003    31.3705    9.72266  101.76072    24.3525 1.5420e+01     19.167     1.1690 0.0000e+00
     18.000     8.5010    31.3714    9.72591  101.79844    24.3531 1.8219e+01     18.147     1.3010 0.0000e+00
     17.000     8.5013    31.3726    9.72174  101.75964    24.3540 2.1679e+01     17.255     1.1642 0.0000e+00
     16.000     8.5026    31.3732    9.72461  101.79828    24.3544 2.5876e+01     16.155     1.2624 0.0000e+00
     15.000     8.5029    31.3729    9.72560  101.82701    24.3540 3.1123e+01     15.227     1.2416 0.0000e+00
     14.000     8.5038    31.3725    9.72431  101.82657    24.3535 3.7648e+01     14.111     1.2434 0.0000e+00
     13.000     8.5045    31.3721    9.72138  101.81284    24.3532 4.5347e+01     13.053     1.3429 0.0000e+00
     12.000     8.5051    31.3720    9.72694  101.89235    24.3530 5.4362e+01     12.223     1.3036 0.0000e+00
     11.000     8.5079    31.3711    9.72007  102.04685    24.3521 6.5758e+01     10.909     1.3171 0.0000e+00
     10.000     8.5097    31.3711   11.09454  102.29649    24.3519 7.9084e+01     10.179     1.3012 0.0000e+00
      9.000     8.5119    31.3697   10.14525  101.85911    24.3504 9.6460e+01      9.107     1.3596 0.0000e+00
      8.000     8.5147    31.3695   11.65489  101.04113    24.3500 1.1418e+02      8.001     1.4787 0.0000e+00
      7.000     8.5217    31.3681 -9.990e-29 -9.990e-29    24.3485 1.4391e+02      7.183     1.4162 0.0000e+00
      6.000     8.5305    31.3649 -9.990e-29 -9.990e-29    24.3451 1.7523e+02      6.140     1.3456 0.0000e+00
      5.000     8.5365    31.3589 -9.990e-29 -9.990e-29    24.3390 2.1326e+02      5.228     1.5483 0.0000e+00
      4.000     8.5453    31.3548 -9.990e-29 -9.990e-29    24.3350 2.5778e+02      4.354     1.1530 0.0000e+00
      3.000     8.5585    31.3487 -9.990e-29 -9.990e-29    24.3290 3.1453e+02      3.502     1.0801 0.0000e+00
      2.000     8.6350    31.3442 -9.990e-29 -9.990e-29    24.3239 3.9271e+02      2.787     1.0573 0.0000e+00
      1.000     8.7806    31.3688 -9.990e-29 -9.990e-29    24.3335 1.0316e+03      2.133     0.9422 0.0000e+00
