* Sea-Bird SBE19plus Data File:
* FileName = C:\data\otf\2007\ctd-07049.hex
* Software Version 1.55
* Temperature SN =  5061
* Conductivity SN =  5061
* System UpLoad Time = Aug 15 2007 16:10:15
* ds
* SeacatPlus V 1.6a  SERIAL NO. 5061    15 Aug 2007  15:31:53
* vbatt = 10.9, vlith =  8.7, ioper =  61.6 ma, ipump =  57.5 ma, 
* iext01 =  95.2 ma
* iext23 =  58.1 ma
* 
* status = not logging
* number of scans to average = 1
* samples = 153039, free = 288466, casts = 154
* mode = profile, minimum cond freq = 3000, pump delay = 60 sec
* autorun = no, ignore magnetic switch = no
* battery type = alkaline, battery cutoff =  7.3 volts
* pressure sensor = strain gauge, range = 870.0
* SBE 38 = no, Gas Tension Device = no
* Ext Volt 0 = yes, Ext Volt 1 = yes, Ext Volt 2 = yes, Ext Volt 3 = yes
* echo commands = yes
* output format = raw HEX
* S>
* 
* SeacatPlus V 1.6a  SERIAL NO. 5061    15 Aug 2007  15:32:18
* temperature:  05-oct-06
*     TA0 = 1.254184e-03
*     TA1 = 2.596730e-04
*     TA2 = 5.165612e-07
*     TA3 = 1.318931e-07
*     TOFFSET = 0.000000e+00
* conductivity:  05-oct-06
*     G = -9.978144e-01
*     H = 1.555200e-01
*     I = -4.839108e-04
*     J = 6.121100e-05
*     CF0 = 2.539936e+03
*     CPCOR = -9.570000e-08
*     CTCOR = 3.250000e-06
*     CSLOPE = 1.000000e+00
* pressure S/N = 2362539, range = 870 psia:  24-aug-06
*     PA0 = 2.171091e-01
*     PA1 = 2.647085e-03
*     PA2 = 1.419397e-11
*     PTCA0 = 5.242437e+05
*     PTCA1 = 7.545345e+00
*     PTCA2 = -1.835354e-01
*     PTCB0 = 2.537125e+01
*     PTCB1 = -1.750000e-03
*     PTCB2 = 0.000000e+00
*     PTEMPA0 = -5.753989e+01
*     PTEMPA1 = 5.235813e+01
*     PTEMPA2 = -4.015521e-02
*     POFFSET = 0.000000e+00
* volt 0: offset = -4.682842e-02, slope = 1.249147e+00
* volt 1: offset = -4.695158e-02, slope = 1.248145e+00
* volt 2: offset = -4.685263e-02, slope = 1.248783e+00
* volt 3: offset = -4.690316e-02, slope = 1.249508e+00
*     EXTFREQSF = 1.000002e+00
* dh
* cast  49 10 Jul 2007 09:38:06 samples 42669 to 42999, avg = 4, stop = mag switch
* S> 
# nquan = 10
# nvalues = 166                         
# units = specified
# name 0 = depSM: Depth [salt water, m]
# name 1 = tv290C: Temperature [ITS-90, deg C]
# name 2 = sal00: Salinity [PSU]
# name 3 = sbeox0Mg/L: Oxygen, SBE 43 [mg/l]
# name 4 = sbeox0PS: Oxygen, SBE 43 [% saturation]
# name 5 = sigma-t00: Density [sigma-t, Kg/m^3 ]
# name 6 = par: PAR/Irradiance, Biospherical/Licor
# name 7 = prdM: Pressure, Strain Gauge [db]
# name 8 = flECO-AFL: Fluorescence, Wetlab ECO-AFL/FL [mg/m^3]
# name 9 = flag: flag
# span 0 =      1.000,     85.000       
# span 1 =     8.1567,     9.1732       
# span 2 =    30.5958,    31.4666       
# span 3 =    8.65867,   11.51393       
# span 4 =   90.87605,  102.20307       
# span 5 =    23.6470,    24.4772       
# span 6 = 1.5477e+00, 2.5622e+02       
# span 7 =      2.070,     83.789       
# span 8 =     0.3463,     1.3805       
# span 9 = 0.0000e+00, 0.0000e+00       
# interval = meters: 1                  
# start_time = Jul 10 2007 09:38:06
# bad_flag = -9.990e-29
# sensor 0 = Frequency 0  temperature, 5061, 05-Oct-06
# sensor 1 = Frequency 1  conductivity, 5061, 05-Oct-06, cpcor = -9.5700e-08
# sensor 2 = Pressure Number
# sensor 3 = Extrnl Volt  0  irradiance (PAR), primary, 4751, 08/10/06
# sensor 4 = Extrnl Volt  1  Oxygen, SBE, primary, 1081, 10/24/06
# sensor 5 = Extrnl Volt  2  WET Labs, ECO_AFL
# sensor 6 = Extrnl Volt  3  userpoly 0, 0627, 10/11/06
# datcnv_date = Oct 15 2007 14:49:45, 5.37e
# datcnv_in = I:\bob d\OTF_GEM\2007\ctd-07049.hex I:\Willette\OTF\CTD\5061.con
# datcnv_skipover = 0
# filter_date = Oct 15 2007 15:02:24, 5.37e
# filter_in = I:\Willette\OTF\CTD\2007\CTD Data\ctd-07049.cnv
# filter_low_pass_tc_A = 1.000
# filter_low_pass_tc_B = 0.150
# filter_low_pass_A_vars = prdM
# filter_low_pass_B_vars =
# loopedit_date = Oct 15 2007 15:06:46, 5.37e
# loopedit_in = I:\Willette\OTF\CTD\2007\CTD Data\ctd-07049.cnv
# loopedit_minVelocity = 0.250                                                                                            
# loopedit_surfaceSoak: minDepth = 5.0, maxDepth = 20, useDeckPress = 1                                                   
# loopedit_excl_bad_scans = yes
# alignctd_date = Oct 15 2007 15:14:15, 5.37e
# alignctd_in = I:\Willette\OTF\CTD\2007\CTD Data\ctd-07049.cnv
# alignctd_adv = tv290C 0.500, sbeox0Mg/L 4.000, sbeox0PS 4.000                                                                                                                                                                      
# binavg_date = Oct 15 2007 15:18:43, 5.37e
# binavg_in = I:\Willette\OTF\CTD\2007\CTD Data\ctd-07049.cnv
# binavg_bintype = meters
# binavg_binsize = 1
# binavg_excl_bad_scans = yes
# binavg_skipover = 0
# binavg_surface_bin = no, min = 0.000, max = 0.000, value = 0.000
# file_type = ascii
*END*
      4.000     9.1483    30.6090    8.78738   92.27974    23.6538 8.2083e+01      4.297     0.5563 0.0000e+00
      5.000     9.1252    30.6231    8.65867   90.87605    23.6689 6.4637e+01      5.082     0.5402 0.0000e+00
      6.000     9.1309    30.6433    8.77776   92.10299    23.6893 4.9862e+01      5.947     0.4920 0.0000e+00
      7.000     9.0929    30.6866    8.80991   92.38781    23.7236 3.7875e+01      7.252     0.4411 0.0000e+00
      8.000     8.9938    30.7047    8.99229   94.26072    23.7444 2.8943e+01      8.604     0.4217 0.0000e+00
      9.000     8.9823    30.7381    9.06832   95.00500    23.7838 2.2625e+01      9.428     0.4006 0.0000e+00
     10.000     8.8188    30.8475    9.26571   97.04717    23.8754 1.6586e+01     10.464     0.3703 0.0000e+00
     11.000     8.7676    30.6715    9.40326   98.45296    23.7318 1.3046e+01     11.398     0.4036 0.0000e+00
     12.000     8.7825    30.8654    9.43938   98.81777    23.9114 1.0302e+01     12.063     0.3805 0.0000e+00
     13.000     8.7585    30.8944    9.49769   99.40000    23.9375 8.0462e+00     13.283     0.3967 0.0000e+00
     14.000     8.7474    30.8896    9.53756   99.79133    23.9367 6.4733e+00     14.360     0.3735 0.0000e+00
     15.000     8.7352    30.9183    9.56973  100.07665    23.9617 5.2228e+00     15.526     0.3788 0.0000e+00
     16.000     8.7004    30.9020    9.58923  100.23295    23.9497 4.3278e+00     16.765     0.3646 0.0000e+00
     17.000     8.7039    30.9181    9.60434  100.36097    23.9657 3.7180e+00     17.645     0.3834 0.0000e+00
     18.000     8.6889    30.9506    9.61624  100.46948    23.9943 3.2189e+00     18.544     0.3801 0.0000e+00
     19.000     8.6589    30.9323    9.62765  100.55756    23.9765 2.7956e+00     19.900     0.3643 0.0000e+00
     20.000     8.6609    30.9308    9.63439  100.60060    23.9801 2.5400e+00     20.443     0.3878 0.0000e+00
     21.000     8.6487    30.9435    9.64106  100.64996    23.9936 2.2759e+00     21.433     0.3824 0.0000e+00
     22.000     8.6316    30.9459    9.64865  100.70727    23.9962 2.1138e+00     22.568     0.4064 0.0000e+00
     23.000     8.6317    30.9550    9.65451  100.75352    24.0049 1.9927e+00     23.223     0.3837 0.0000e+00
     24.000     8.6223    30.9671    9.65828  100.77582    24.0165 1.8814e+00     24.160     0.3696 0.0000e+00
     25.000     8.6095    30.9706    9.66698  100.85468    24.0199 1.8061e+00     25.280     0.4077 0.0000e+00
     26.000     8.6040    30.9772    9.67344  100.89406    24.0263 1.7513e+00     25.986     0.3854 0.0000e+00
     27.000     8.5883    30.9870    9.68124  100.94631    24.0358 1.6997e+00     27.065     0.3982 0.0000e+00
     28.000     8.5698    30.9901    9.68234  100.95045    24.0394 1.6682e+00     28.027     0.4035 0.0000e+00
     29.000     8.5580    30.9970    9.68324  100.95824    24.0467 1.6419e+00     28.798     0.3786 0.0000e+00
     30.000     8.5386    31.0088    9.68864  101.01223    24.0592 1.6199e+00     29.945     0.3944 0.0000e+00
     31.000 -9.990e-29 -9.990e-29 -9.990e-29 -9.990e-29 -9.990e-29 -9.990e-29 -9.990e-29 -9.990e-29 -9.990e-29
     32.000     8.5178    31.0279    9.68953  101.01950    24.0789 1.5910e+00     31.777     0.3825 0.0000e+00
     33.000     8.4802    31.0394    9.70281  101.11671    24.0904 1.5800e+00     33.381     0.3840 0.0000e+00
     34.000     8.4780    31.0492    9.71188  101.19526    24.1005 1.5739e+00     34.061     0.3699 0.0000e+00
     35.000     8.4589    31.0644    9.72184  101.30658    24.1156 1.5676e+00     35.366     0.3592 0.0000e+00
     36.000 -9.990e-29 -9.990e-29 -9.990e-29 -9.990e-29 -9.990e-29 -9.990e-29 -9.990e-29 -9.990e-29 -9.990e-29
     37.000     8.4391    31.0806    9.72940  101.36503    24.1315 1.5609e+00     36.875     0.3504 0.0000e+00
     38.000     8.4036    31.0873    9.73178  101.30796    24.1388 1.5574e+00     38.537     0.3718 0.0000e+00
     39.000     8.4128    31.1035    9.73649  101.38263    24.1544 1.5558e+00     38.902     0.3559 0.0000e+00
     40.000     8.4110    31.1115    9.74446  101.44127    24.1622 1.5544e+00     40.106     0.3568 0.0000e+00
     41.000     8.4097    31.1134    9.75421  101.52452    24.1641 1.5533e+00     41.471     0.3565 0.0000e+00
     42.000     8.3787    31.1151    9.76080  101.59381    24.1656 1.5520e+00     42.869     0.3648 0.0000e+00
     43.000     8.3777    31.1400    9.76103  101.58558    24.1885 1.5516e+00     43.795     0.3676 0.0000e+00
     44.000     8.3794    31.1497    9.75993  101.56024    24.1976 1.5513e+00     44.770     0.3789 0.0000e+00
     45.000     8.3796    31.1450    9.75699  101.50345    24.1934 1.5510e+00     45.543     0.3713 0.0000e+00
     46.000     8.3439    31.1457    9.76335  101.55195    24.1938 1.5506e+00     46.698     0.3546 0.0000e+00
     47.000 -9.990e-29 -9.990e-29 -9.990e-29 -9.990e-29 -9.990e-29 -9.990e-29 -9.990e-29 -9.990e-29 -9.990e-29
     48.000     8.3288    31.1949    9.76975  101.59463    24.2380 1.5503e+00     48.275     0.3665 0.0000e+00
     49.000     8.3048    31.2123    9.78647  101.73848    24.2540 1.5501e+00     50.143     0.3923 0.0000e+00
     50.000     8.3087    31.2119    9.78312  101.70226    24.2537 1.5502e+00     50.374     0.3463 0.0000e+00
     51.000     8.3022    31.2294    9.78120  101.67286    24.2695 1.5496e+00     51.441     0.3704 0.0000e+00
     52.000     8.3042    31.2357    9.78222  101.66962    24.2755 1.5496e+00     52.531     0.3772 0.0000e+00
     53.000     8.2971    31.2359    9.78399  101.68363    24.2757 1.5498e+00     53.506     0.3694 0.0000e+00
     54.000     8.3003    31.2388    9.78492  101.68302    24.2782 1.5494e+00     54.775     0.3691 0.0000e+00
     55.000     8.2832    31.2485    9.78600  101.69032    24.2873 1.5494e+00     55.586     0.3791 0.0000e+00
     56.000     8.2661    31.2492    9.78210  101.64340    24.2877 1.5496e+00     56.618     0.4850 0.0000e+00
     57.000     8.2562    31.2682    9.78852  101.70148    24.3051 1.5493e+00     57.559     0.5903 0.0000e+00
     58.000     8.2460    31.2856    9.79505  101.76279    24.3207 1.5495e+00     58.685     0.6209 0.0000e+00
     59.000     8.2376    31.3001    9.80140  101.81869    24.3335 1.5494e+00     59.601     0.6165 0.0000e+00
     60.000     8.2296    31.3097    9.79436  101.73019    24.3421 1.5495e+00     60.551     0.5784 0.0000e+00
     61.000     8.2237    31.3167    9.79131  101.70184    24.3488 1.5493e+00     61.529     0.6023 0.0000e+00
     62.000     8.2194    31.3229    9.79819  101.77152    24.3548 1.5494e+00     62.502     0.6282 0.0000e+00
     63.000     8.2118    31.3280    9.80668  101.86034    24.3597 1.5492e+00     63.587     0.6288 0.0000e+00
     64.000     8.2109    31.3289    9.80684  101.86238    24.3610 1.5488e+00     64.409     0.6455 0.0000e+00
     65.000     8.2064    31.3340    9.80519  101.85010    24.3658 1.5491e+00     65.418     0.6192 0.0000e+00
     66.000     8.2022    31.3362    9.80576  101.86178    24.3680 1.5491e+00     66.540     0.5984 0.0000e+00
     67.000     8.1996    31.3389    9.79997  101.80201    24.3707 1.5488e+00     67.287     0.5524 0.0000e+00
     68.000     8.1917    31.3437    9.80663  101.87837    24.3751 1.5489e+00     68.660     0.5300 0.0000e+00
     69.000     8.1885    31.3470    9.80984  101.91017    24.3782 1.5491e+00     69.373     0.5142 0.0000e+00
     70.000     8.1750    31.3585    9.80482  101.85859    24.3885 1.5493e+00     70.701     0.5067 0.0000e+00
     71.000     8.1707    31.3692    9.80213  101.83589    24.3977 1.5492e+00     71.583     0.5056 0.0000e+00
     72.000     8.1628    31.3825    9.80516  101.86731    24.4096 1.5491e+00     72.626     0.5065 0.0000e+00
     73.000     8.1567    31.4170    9.79577  101.77793    24.4379 1.5488e+00     74.098     0.4434 0.0000e+00
     74.000     8.1582    31.4226    9.79579  101.77985    24.4427 1.5487e+00     74.617     0.5018 0.0000e+00
     75.000     8.1577    31.4297    9.80267  101.85560    24.4486 1.5489e+00     75.749     0.5370 0.0000e+00
     76.000     8.1570    31.4312    9.80380  101.87015    24.4497 1.5485e+00     76.861     0.5800 0.0000e+00
     77.000     8.1574    31.4494    9.80120  101.83862    24.4640 1.5490e+00     77.455     0.5321 0.0000e+00
     78.000     8.1573    31.4528    9.79566  101.78192    24.4667 1.5490e+00     78.643     0.5362 0.0000e+00
     79.000     8.1575    31.4588    9.78943  101.71608    24.4715 1.5488e+00     79.450     0.5430 0.0000e+00
     80.000     8.1578    31.4582    9.78965  101.71645    24.4710 1.5488e+00     80.429     0.5177 0.0000e+00
     81.000     8.1586    31.4579    9.79279  101.74463    24.4708 1.5488e+00     81.242     0.5163 0.0000e+00
     82.000     8.1590    31.4617    9.79776  101.79389    24.4736 1.5488e+00     82.025     0.5200 0.0000e+00
     83.000     8.1606    31.4625    9.79893  101.80630    24.4743 1.5487e+00     82.712     0.5316 0.0000e+00
     84.000     8.1628    31.4666    9.80135  101.82874    24.4772 1.5488e+00     83.392     0.5143 0.0000e+00
     85.000     8.1648    31.4666    9.79869  101.79916    24.4767 1.5488e+00     83.789     0.5629 0.0000e+00
     84.000     8.1631    31.4662    9.79528  101.76784    24.4765 1.5486e+00     83.445     0.6014 0.0000e+00
     83.000     8.1627    31.4660    9.79301  101.74232    24.4763 1.5486e+00     82.882     0.6439 0.0000e+00
     82.000     8.1617    31.4663    9.79023  101.71353    24.4766 1.5484e+00     82.432     0.5665 0.0000e+00
     81.000     8.1606    31.4659    9.79356  101.74593    24.4763 1.5484e+00     81.929     0.5833 0.0000e+00
     80.000     8.1596    31.4638    9.80075  101.80907    24.4748 1.5483e+00     81.263     0.5753 0.0000e+00
     79.000     8.1591    31.4629    9.80250  101.80898    24.4744 1.5487e+00     79.913     0.5271 0.0000e+00
     78.000     8.1583    31.4632    9.80743  101.89013    24.4747 1.5482e+00     78.413     0.5428 0.0000e+00
     77.000     8.1587    31.4640    9.78989  101.72352    24.4754 1.5480e+00     77.182     0.5132 0.0000e+00
     76.000     8.1582    31.4647    9.78926  101.72497    24.4759 1.5481e+00     76.444     0.5223 0.0000e+00
     75.000     8.1570    31.4581    9.79226  101.76419    24.4707 1.5478e+00     75.218     0.5657 0.0000e+00
     74.000     8.1604    31.4447    9.79060  101.74958    24.4604 1.5482e+00     74.650     0.5230 0.0000e+00
     73.000     8.1715    31.4093    9.78787  101.73103    24.4322 1.5482e+00     73.504     0.4723 0.0000e+00
     72.000     8.1788    31.3871    9.78525  101.71213    24.4137 1.5481e+00     72.604     0.4627 0.0000e+00
     71.000     8.1851    31.3705    9.78321  101.70429    24.3994 1.5480e+00     71.623     0.4726 0.0000e+00
     70.000     8.1879    31.3610    9.78516  101.73537    24.3911 1.5483e+00     70.818     0.4701 0.0000e+00
     69.000     8.1949    31.3543    9.79312  101.83083    24.3851 1.5482e+00     69.681     0.4486 0.0000e+00
     68.000     8.2004    31.3473    9.78280  101.73563    24.3788 1.5482e+00     68.751     0.4666 0.0000e+00
     67.000     8.2082    31.3379    9.76335  101.55776    24.3702 1.5483e+00     67.417     0.4016 0.0000e+00
     66.000     8.2078    31.3360    9.76523  101.60060    24.3684 1.5479e+00     66.805     0.4328 0.0000e+00
     65.000     8.2123    31.3332    9.76207  101.62122    24.3657 1.5480e+00     65.645     0.4259 0.0000e+00
     64.000     8.2172    31.3307    9.75401  101.56293    24.3632 1.5480e+00     64.681     0.4423 0.0000e+00
     63.000     8.2220    31.3276    9.74504  101.48493    24.3601 1.5481e+00     63.671     0.4178 0.0000e+00
     62.000     8.2323    31.3244    9.74523  101.48819    24.3569 1.5479e+00     62.725     0.4167 0.0000e+00
     61.000     8.2397    31.3158    9.72950  101.32878    24.3487 1.5480e+00     61.650     0.4038 0.0000e+00
     60.000     8.2492    31.3093    9.72909  101.32753    24.3425 1.5480e+00     60.678     0.4353 0.0000e+00
     59.000     8.2641    31.2968    9.72540  101.29154    24.3313 1.5480e+00     59.698     0.4292 0.0000e+00
     58.000     8.2972    31.2748    9.72418  101.28309    24.3119 1.5480e+00     58.673     0.4117 0.0000e+00
     57.000     8.3219    31.2358    9.73825  101.43356    24.2764 1.5480e+00     57.678     0.4133 0.0000e+00
     56.000     8.3380    31.2065    9.74113  101.46925    24.2496 1.5478e+00     56.624     0.4130 0.0000e+00
     55.000     8.3405    31.1894    9.73768  101.43503    24.2338 1.5480e+00     55.458     0.4384 0.0000e+00
     54.000     8.3427    31.1907    9.72526  101.30386    24.2349 1.5480e+00     54.604     0.4362 0.0000e+00
     53.000     8.3454    31.1875    9.72273  101.28780    24.2319 1.5479e+00     53.507     0.3977 0.0000e+00
     52.000     8.3477    31.1848    9.72751  101.33896    24.2295 1.5479e+00     52.546     0.4044 0.0000e+00
     51.000     8.3504    31.1818    9.73348  101.40589    24.2268 1.5477e+00     51.503     0.4266 0.0000e+00
     50.000     8.3544    31.1788    9.72910  101.37376    24.2240 1.5479e+00     50.382     0.3987 0.0000e+00
     49.000     8.3561    31.1745    9.74042  101.49936    24.2201 1.5483e+00     49.501     0.4200 0.0000e+00
     48.000     8.3546    31.1731    9.72120  101.31708    24.2189 1.5481e+00     48.526     0.4560 0.0000e+00
     47.000     8.3593    31.1741    9.72112  101.32513    24.2198 1.5480e+00     47.489     0.4725 0.0000e+00
     46.000     8.3640    31.1652    9.72567  101.37794    24.2119 1.5484e+00     46.429     0.4639 0.0000e+00
     45.000     8.3643    31.1637    9.72573  101.39464    24.2104 1.5487e+00     45.409     0.4768 0.0000e+00
     44.000     8.3727    31.1590    9.72154  101.36645    24.2062 1.5487e+00     44.434     0.4664 0.0000e+00
     43.000     8.3808    31.1510    9.71012  101.26498    24.1990 1.5493e+00     43.430     0.4643 0.0000e+00
     42.000     8.3928    31.1390    9.70304  101.20441    24.1883 1.5501e+00     42.379     0.4673 0.0000e+00
     41.000     8.3981    31.1234    9.70328  101.25216    24.1741 1.5508e+00     41.290     0.4701 0.0000e+00
     40.000     8.4008    31.1213    9.69889  101.23180    24.1721 1.5518e+00     40.368     0.4827 0.0000e+00
     39.000     8.4097    31.1177    9.71013  101.40541    24.1688 1.5536e+00     39.405     0.4918 0.0000e+00
     38.000     8.4190    31.1080    9.70895  101.45138    24.1598 1.5551e+00     38.387     0.4824 0.0000e+00
     37.000     8.4283    31.1000    9.71278  101.52413    24.1522 1.5581e+00     37.372     0.5295 0.0000e+00
     36.000     8.4359    31.0920    9.71646  101.58847    24.1444 1.5617e+00     36.312     0.5249 0.0000e+00
     35.000     8.4547    31.0854    9.71304  101.56588    24.1379 1.5662e+00     35.326     0.5124 0.0000e+00
     34.000     8.4726    31.0724    9.70189  101.47203    24.1250 1.5723e+00     34.291     0.5110 0.0000e+00
     33.000     8.5009    31.0625    9.68903  101.35845    24.1149 1.5805e+00     33.349     0.5583 0.0000e+00
     32.000     8.5372    31.0390    9.69492  101.44920    24.0914 1.5905e+00     32.208     0.5787 0.0000e+00
     31.000     8.5502    31.0218    9.70049  101.53720    24.0742 1.6033e+00     31.407     0.6091 0.0000e+00
     30.000     8.5638    31.0122    9.69924  101.54079    24.0639 1.6215e+00     30.286     0.5760 0.0000e+00
     29.000     8.5708    31.0041    9.69278  101.50373    24.0555 1.6448e+00     29.144     0.5745 0.0000e+00
     28.000     8.5838    31.0014    9.68059  101.39679    24.0526 1.6721e+00     28.168     0.6298 0.0000e+00
     27.000     8.5927    30.9953    9.67565  101.36279    24.0462 1.7101e+00     27.290     0.6792 0.0000e+00
     26.000     8.6069    30.9885    9.68232  101.45363    24.0393 1.7583e+00     26.154     0.6933 0.0000e+00
     25.000     8.6244    30.9813    9.68023  101.44986    24.0318 1.8234e+00     25.175     0.6411 0.0000e+00
     24.000     8.6319    30.9694    9.67775  101.44385    24.0199 1.9036e+00     24.226     0.6070 0.0000e+00
     23.000     8.6445    30.9633    9.68162  101.51001    24.0139 2.0092e+00     23.144     0.6213 0.0000e+00
     22.000     8.6585    30.9528    9.67938  101.50896    24.0039 2.1516e+00     22.131     0.6006 0.0000e+00
     21.000     8.6684    30.9405    9.67764  101.51688    23.9923 2.3353e+00     21.135     0.6162 0.0000e+00
     20.000     8.6796    30.9314    9.67768  101.57462    23.9837 2.5743e+00     20.125     0.6016 0.0000e+00
     19.000     8.6878    30.9225    9.69301  101.78642    23.9751 2.8954e+00     19.165     0.6146 0.0000e+00
     18.000     8.6976    30.9161    9.70374  101.99786    23.9689 3.3235e+00     18.131     0.6186 0.0000e+00
     17.000     8.7089    30.9083    9.70728  102.19891    23.9613 3.8607e+00     17.089     0.6282 0.0000e+00
     16.000     8.7212    30.8995    9.69124  102.13977    23.9527 4.6035e+00     16.066     0.6618 0.0000e+00
     15.000     8.7329    30.8902    9.67161  102.02199    23.9437 5.5602e+00     14.999     0.6890 0.0000e+00
     14.000     8.7447    30.8826    9.66424  102.00305    23.9362 6.8054e+00     14.024     0.6865 0.0000e+00
     13.000     8.7706    30.8767    9.65892  102.01757    23.9302 8.4496e+00     13.045     0.6773 0.0000e+00
     12.000     8.7947    30.8562    9.66514  102.16435    23.9095 1.0836e+01     11.757     0.6653 0.0000e+00
     11.000     8.8239    30.8449    9.66741  102.20307    23.8987 1.3396e+01     11.032     0.6872 0.0000e+00
     10.000     8.8721    30.8255   11.22613  102.04155    23.8792 1.7527e+01     10.023     0.8385 0.0000e+00
      9.000     8.9657    30.7865   10.32316  101.18989    23.8409 2.1956e+01      8.775     0.8343 0.0000e+00
      8.000     9.0048    30.7386   11.45638  100.92885    23.7939 3.0414e+01      8.034     0.8836 0.0000e+00
      7.000     9.0403    30.6916   11.51393  100.74604    23.7487 4.0115e+01      7.108     1.0434 0.0000e+00
      6.000     9.0724    30.6633 -9.990e-29 -9.990e-29    23.7207 5.2299e+01      6.185     1.1369 0.0000e+00
      5.000     9.0966    30.6379 -9.990e-29 -9.990e-29    23.6949 6.8279e+01      5.190     1.1461 0.0000e+00
      4.000     9.1235    30.6276 -9.990e-29 -9.990e-29    23.6838 8.7470e+01      4.371     1.2395 0.0000e+00
      3.000     9.1527    30.6153 -9.990e-29 -9.990e-29    23.6702 1.1365e+02      3.581     1.3712 0.0000e+00
      2.000     9.1648    30.6032 -9.990e-29 -9.990e-29    23.6561 1.4074e+02      2.829     1.3805 0.0000e+00
      1.000     9.1732    30.5958 -9.990e-29 -9.990e-29    23.6470 2.5622e+02      2.070     1.3135 0.0000e+00
