* Sea-Bird SBE19plus Data File:
* FileName = C:\data\otf\2007\ctd-07106.hex
* Software Version 1.55
* Temperature SN =  5061
* Conductivity SN =  5061
* System UpLoad Time = Aug 15 2007 16:35:03
* ds
* SeacatPlus V 1.6a  SERIAL NO. 5061    15 Aug 2007  15:31:53
* vbatt = 10.9, vlith =  8.7, ioper =  61.6 ma, ipump =  57.5 ma, 
* iext01 =  95.2 ma
* iext23 =  58.1 ma
* 
* status = not logging
* number of scans to average = 1
* samples = 153039, free = 288466, casts = 154
* mode = profile, minimum cond freq = 3000, pump delay = 60 sec
* autorun = no, ignore magnetic switch = no
* battery type = alkaline, battery cutoff =  7.3 volts
* pressure sensor = strain gauge, range = 870.0
* SBE 38 = no, Gas Tension Device = no
* Ext Volt 0 = yes, Ext Volt 1 = yes, Ext Volt 2 = yes, Ext Volt 3 = yes
* echo commands = yes
* output format = raw HEX
* S>
* 
* SeacatPlus V 1.6a  SERIAL NO. 5061    15 Aug 2007  15:32:18
* temperature:  05-oct-06
*     TA0 = 1.254184e-03
*     TA1 = 2.596730e-04
*     TA2 = 5.165612e-07
*     TA3 = 1.318931e-07
*     TOFFSET = 0.000000e+00
* conductivity:  05-oct-06
*     G = -9.978144e-01
*     H = 1.555200e-01
*     I = -4.839108e-04
*     J = 6.121100e-05
*     CF0 = 2.539936e+03
*     CPCOR = -9.570000e-08
*     CTCOR = 3.250000e-06
*     CSLOPE = 1.000000e+00
* pressure S/N = 2362539, range = 870 psia:  24-aug-06
*     PA0 = 2.171091e-01
*     PA1 = 2.647085e-03
*     PA2 = 1.419397e-11
*     PTCA0 = 5.242437e+05
*     PTCA1 = 7.545345e+00
*     PTCA2 = -1.835354e-01
*     PTCB0 = 2.537125e+01
*     PTCB1 = -1.750000e-03
*     PTCB2 = 0.000000e+00
*     PTEMPA0 = -5.753989e+01
*     PTEMPA1 = 5.235813e+01
*     PTEMPA2 = -4.015521e-02
*     POFFSET = 0.000000e+00
* volt 0: offset = -4.682842e-02, slope = 1.249147e+00
* volt 1: offset = -4.695158e-02, slope = 1.248145e+00
* volt 2: offset = -4.685263e-02, slope = 1.248783e+00
* volt 3: offset = -4.690316e-02, slope = 1.249508e+00
*     EXTFREQSF = 1.000002e+00
* dh
* cast 106 21 Jul 2007 09:24:46 samples 67305 to 68225, avg = 1, stop = mag switch
* S> 
# nquan = 10
# nvalues = 87                          
# units = specified
# name 0 = depSM: Depth [salt water, m]
# name 1 = tv290C: Temperature [ITS-90, deg C]
# name 2 = sal00: Salinity [PSU]
# name 3 = sbeox0Mg/L: Oxygen, SBE 43 [mg/l]
# name 4 = sbeox0PS: Oxygen, SBE 43 [% saturation]
# name 5 = sigma-t00: Density [sigma-t, Kg/m^3 ]
# name 6 = par: PAR/Irradiance, Biospherical/Licor
# name 7 = prdM: Pressure, Strain Gauge [db]
# name 8 = flECO-AFL: Fluorescence, Wetlab ECO-AFL/FL [mg/m^3]
# name 9 = flag: flag
# span 0 =      1.000,     46.000       
# span 1 =     8.5935,     8.6596       
# span 2 =    31.6206,    31.7422       
# span 3 =    8.59852,    9.51947       
# span 4 =   90.40978,  100.05197       
# span 5 =    24.5290,    24.6241       
# span 6 = 2.1833e+00, 1.4838e+03       
# span 7 =      1.123,     46.020       
# span 8 =     1.2558,     2.2685       
# span 9 = 0.0000e+00, 0.0000e+00       
# interval = meters: 1                  
# start_time = Jul 21 2007 09:24:46
# bad_flag = -9.990e-29
# sensor 0 = Frequency 0  temperature, 5061, 05-Oct-06
# sensor 1 = Frequency 1  conductivity, 5061, 05-Oct-06, cpcor = -9.5700e-08
# sensor 2 = Pressure Number
# sensor 3 = Extrnl Volt  0  irradiance (PAR), primary, 4751, 08/10/06
# sensor 4 = Extrnl Volt  1  Oxygen, SBE, primary, 1081, 10/24/06
# sensor 5 = Extrnl Volt  2  WET Labs, ECO_AFL
# sensor 6 = Extrnl Volt  3  userpoly 0, 0627, 10/11/06
# datcnv_date = Oct 15 2007 14:49:47, 5.37e
# datcnv_in = I:\bob d\OTF_GEM\2007\ctd-07106.hex I:\Willette\OTF\CTD\5061.con
# datcnv_skipover = 0
# filter_date = Oct 15 2007 15:02:29, 5.37e
# filter_in = I:\Willette\OTF\CTD\2007\CTD Data\ctd-07106.cnv
# filter_low_pass_tc_A = 1.000
# filter_low_pass_tc_B = 0.150
# filter_low_pass_A_vars = prdM
# filter_low_pass_B_vars =
# loopedit_date = Oct 15 2007 15:06:50, 5.37e
# loopedit_in = I:\Willette\OTF\CTD\2007\CTD Data\ctd-07106.cnv
# loopedit_minVelocity = 0.250                                                                                            
# loopedit_surfaceSoak: minDepth = 5.0, maxDepth = 20, useDeckPress = 1                                                   
# loopedit_excl_bad_scans = yes
# alignctd_date = Oct 15 2007 15:14:18, 5.37e
# alignctd_in = I:\Willette\OTF\CTD\2007\CTD Data\ctd-07106.cnv
# alignctd_adv = tv290C 0.500, sbeox0Mg/L 4.000, sbeox0PS 4.000                                                                                                                                                                      
# binavg_date = Oct 15 2007 15:18:46, 5.37e
# binavg_in = I:\Willette\OTF\CTD\2007\CTD Data\ctd-07106.cnv
# binavg_bintype = meters
# binavg_binsize = 1
# binavg_excl_bad_scans = yes
# binavg_skipover = 0
# binavg_surface_bin = no, min = 0.000, max = 0.000, value = 0.000
# file_type = ascii
*END*
      5.000     8.6596    31.7075    8.66765   91.14958    24.5920 3.0924e+02      5.014     1.4797 0.0000e+00
      6.000     8.6556    31.7328    8.72820   91.82363    24.6124 2.8170e+02      6.172     1.5638 0.0000e+00
      7.000     8.6277    31.6853    8.59852   90.40978    24.5782 2.2133e+02      7.150     1.7063 0.0000e+00
      8.000     8.6190    31.6981    8.67711   91.24020    24.5909 1.7339e+02      7.959     1.7763 0.0000e+00
      9.000     8.6362    31.7422    8.71571   91.64562    24.6241 1.4608e+02      9.149     1.8976 0.0000e+00
     10.000     8.6219    31.6798    8.75597   92.06859    24.5748 1.2231e+02     10.146     1.9954 0.0000e+00
     11.000     8.6185    31.7012    8.78806   92.40050    24.5939 1.0218e+02     11.039     2.0656 0.0000e+00
     12.000     8.6256    31.7015    8.77353   92.22738    24.5930 8.3246e+01     12.172     2.1443 0.0000e+00
     13.000     8.6128    31.6966    8.85745   93.13045    24.5905 7.2508e+01     13.066     2.1723 0.0000e+00
     14.000     8.6194    31.7145    8.78039   92.28938    24.6045 5.9559e+01     14.262     2.2342 0.0000e+00
     15.000     8.6108    31.6780    8.83801   92.90013    24.5761 5.2025e+01     15.112     2.2539 0.0000e+00
     16.000     8.6152    31.7075    8.91536   93.68916    24.5996 4.3211e+01     16.139     2.2541 0.0000e+00
     17.000     8.6121    31.6712    9.04274   95.01808    24.5703 3.7922e+01     17.301     2.2314 0.0000e+00
     18.000     8.6080    31.6763    9.12202   95.85074    24.5757 3.2657e+01     18.076     2.2130 0.0000e+00
     19.000     8.6069    31.6697    9.20085   96.67836    24.5706 2.7877e+01     19.191     2.2103 0.0000e+00
     20.000     8.5995    31.6627    9.25141   97.20877    24.5662 2.4436e+01     20.286     2.2377 0.0000e+00
     21.000     8.5987    31.6660    9.27551   97.46170    24.5692 2.1211e+01     21.160     2.2340 0.0000e+00
     22.000     8.5985    31.6651    9.29673   97.68437    24.5685 1.8369e+01     22.196     2.2349 0.0000e+00
     23.000     8.5979    31.6656    9.31239   97.84928    24.5690 1.6082e+01     23.209     2.2426 0.0000e+00
     24.000     8.5974    31.6672    9.32886   98.02178    24.5703 1.4046e+01     24.200     2.2360 0.0000e+00
     25.000     8.5968    31.6677    9.34374   98.17713    24.5708 1.2258e+01     25.316     2.2555 0.0000e+00
     26.000     8.5960    31.6698    9.35392   98.28448    24.5725 1.0858e+01     26.273     2.2685 0.0000e+00
     27.000     8.5954    31.6725    9.36755   98.43012    24.5747 9.5687e+00     27.172     2.2269 0.0000e+00
     28.000     8.5950    31.6738    9.37922   98.55179    24.5759 8.4596e+00     28.277     2.1868 0.0000e+00
     29.000     8.5951    31.6727    9.38609   98.62305    24.5750 7.5717e+00     29.366     2.1497 0.0000e+00
     30.000     8.5949    31.6730    9.39261   98.69160    24.5752 6.7997e+00     30.286     2.0915 0.0000e+00
     31.000     8.5944    31.6788    9.39599   98.72853    24.5798 6.0749e+00     31.239     2.0735 0.0000e+00
     32.000     8.5942    31.6788    9.39911   98.76109    24.5799 5.4547e+00     32.300     2.0730 0.0000e+00
     33.000     8.5944    31.6769    9.40239   98.79493    24.5784 4.9442e+00     33.343     2.0806 0.0000e+00
     34.000     8.5944    31.6763    9.41169   98.89234    24.5779 4.5204e+00     34.363     2.0228 0.0000e+00
     35.000     8.5941    31.6789    9.41947   98.97400    24.5800 4.1372e+00     35.251     1.9871 0.0000e+00
     36.000     8.5938    31.6801    9.42121   98.99269    24.5810 3.7752e+00     36.429     1.9571 0.0000e+00
     37.000     8.5935    31.6803    9.42460   99.02834    24.5812 3.5088e+00     37.420     1.9273 0.0000e+00
     38.000     8.5935    31.6803    9.42550   99.03814    24.5812 3.2559e+00     38.275     1.8650 0.0000e+00
     39.000     8.5935    31.6801    9.43623   99.15086    24.5810 3.0182e+00     39.340     1.8492 0.0000e+00
     40.000     8.5938    31.6798    9.43928   99.18328    24.5808 2.8246e+00     40.493     1.8199 0.0000e+00
     41.000     8.5935    31.6806    9.43899   99.18072    24.5814 2.6721e+00     41.467     1.8313 0.0000e+00
     42.000     8.5936    31.6804    9.44551   99.25101    24.5812 2.5358e+00     42.254     1.7639 0.0000e+00
     43.000     8.5937    31.6807    9.44082   99.20629    24.5815 2.4016e+00     43.254     1.7509 0.0000e+00
     44.000     8.5939    31.6805    9.44214   99.22421    24.5813 2.2956e+00     44.332     1.7715 0.0000e+00
     45.000     8.5945    31.6809    9.43899   99.19283    24.5815 2.2043e+00     45.179     1.7477 0.0000e+00
     46.000     8.5978    31.6825    9.43223   99.11637    24.5826 2.1833e+00     46.020     1.4221 0.0000e+00
     45.000     8.6039    31.6807    9.44431   99.24765    24.5800 2.1994e+00     45.351     1.6351 0.0000e+00
     44.000     8.6004    31.6793    9.45234   99.32997    24.5792 2.2651e+00     44.340     1.6372 0.0000e+00
     43.000     8.5985    31.6800    9.45974   99.40638    24.5801 2.3854e+00     43.403     1.6842 0.0000e+00
     42.000     8.5972    31.6797    9.46375   99.44582    24.5800 2.5175e+00     42.421     1.6603 0.0000e+00
     41.000     8.5991    31.6818    9.46807   99.49680    24.5817 2.6528e+00     41.324     1.7163 0.0000e+00
     40.000     8.5960    31.6795    9.46358   99.44284    24.5801 2.8158e+00     40.375     1.7221 0.0000e+00
     39.000     8.5987    31.6800    9.46507   99.46118    24.5802 3.0003e+00     39.468     1.7326 0.0000e+00
     38.000     8.5953    31.6802    9.47328   99.54639    24.5808 3.2260e+00     38.248     1.7938 0.0000e+00
     37.000     8.5969    31.6792    9.47277   99.53914    24.5798 3.4744e+00     37.379     1.7685 0.0000e+00
     36.000     8.5962    31.6792    9.46565   99.46278    24.5799 3.7709e+00     36.324     1.7694 0.0000e+00
     35.000     8.5973    31.6801    9.46861   99.49162    24.5806 4.0949e+00     35.363     1.7106 0.0000e+00
     34.000     8.5950    31.6781    9.47559   99.56688    24.5792 4.4928e+00     34.315     1.7171 0.0000e+00
     33.000     8.5960    31.6762    9.48093   99.62273    24.5776 4.9466e+00     33.312     1.7290 0.0000e+00
     32.000     8.5967    31.6722    9.47753   99.58579    24.5743 5.4724e+00     32.326     1.7513 0.0000e+00
     31.000     8.5967    31.6750    9.47941   99.61005    24.5767 6.0729e+00     31.286     1.7757 0.0000e+00
     30.000     8.5958    31.6739    9.48134   99.62659    24.5758 6.7884e+00     30.270     1.7519 0.0000e+00
     29.000     8.5982    31.6744    9.48351   99.65400    24.5760 7.5987e+00     29.296     1.7342 0.0000e+00
     28.000     8.5965    31.6723    9.48378   99.65304    24.5745 8.5640e+00     28.246     1.7909 0.0000e+00
     27.000     8.5986    31.6719    9.48449   99.65519    24.5739 9.6785e+00     27.288     1.7690 0.0000e+00
     26.000     8.5972    31.6701    9.48900   99.70737    24.5727 1.0980e+01     26.148     1.7392 0.0000e+00
     25.000     8.5961    31.6685    9.48462   99.65678    24.5715 1.2508e+01     25.225     1.7202 0.0000e+00
     24.000     8.5972    31.6688    9.48908   99.70301    24.5716 1.4279e+01     24.313     1.7193 0.0000e+00
     23.000     8.5958    31.6680    9.48374   99.65255    24.5713 1.6367e+01     23.141     1.7496 0.0000e+00
     22.000     8.5960    31.6679    9.48177   99.62505    24.5710 1.8815e+01     22.194     1.7549 0.0000e+00
     21.000     8.5985    31.6697    9.48471   99.66205    24.5724 2.1677e+01     21.241     1.7966 0.0000e+00
     20.000     8.5968    31.6630    9.49073   99.72306    24.5671 2.5117e+01     20.148     1.7401 0.0000e+00
     19.000     8.6008    31.6587    9.49241   99.74436    24.5632 2.9078e+01     19.237     1.7678 0.0000e+00
     18.000     8.5993    31.6584    9.48754   99.69677    24.5632 3.4024e+01     18.142     1.7408 0.0000e+00
     17.000     8.6014    31.6590    9.48891   99.70896    24.5634 3.9948e+01     17.142     1.7364 0.0000e+00
     16.000     8.6030    31.6591    9.50131   99.84310    24.5632 4.7083e+01     16.179     1.7411 0.0000e+00
     15.000     8.6032    31.6549    9.50324   99.86056    24.5598 5.5093e+01     15.120     1.8069 0.0000e+00
     14.000     8.6059    31.6512    9.50386   99.86302    24.5567 6.4647e+01     14.144     1.7653 0.0000e+00
     13.000     8.6065    31.6459    9.50403   99.86516    24.5523 7.7161e+01     13.115     1.7480 0.0000e+00
     12.000     8.6045    31.6446    9.50811   99.90198    24.5515 8.8483e+01     12.100     1.7877 0.0000e+00
     11.000     8.6040    31.6486    9.51050   99.93348    24.5548 1.0726e+02     11.148     1.7523 0.0000e+00
     10.000     8.5993    31.6505    9.50871   99.90765    24.5568 1.2566e+02     10.041     1.6969 0.0000e+00
      9.000     8.6024    31.6534    9.51651   99.99691    24.5589 1.5271e+02      9.135     1.6597 0.0000e+00
      8.000     8.6000    31.6511    9.51616   99.98770    24.5572 1.7830e+02      8.033     1.6611 0.0000e+00
      7.000     8.6041    31.6483    9.51891  100.01795    24.5547 2.2191e+02      7.080     1.5952 0.0000e+00
      6.000     8.6037    31.6419    9.51947  100.02800    24.5494 2.5699e+02      6.049     1.5066 0.0000e+00
      5.000     8.6037    31.6425    9.50637   99.89179    24.5501 3.2122e+02      5.025     1.4841 0.0000e+00
      4.000     8.6045    31.6434    9.51130   99.96926    24.5508 4.1875e+02      4.058     1.3818 0.0000e+00
      3.000     8.6072    31.6410    9.51648  100.05197    24.5484 5.1799e+02      3.027     1.2849 0.0000e+00
      2.000     8.6169    31.6317    9.49220   99.80822    24.5405 6.7812e+02      2.018     1.2579 0.0000e+00
      1.000     8.6344    31.6206    9.38977   98.78905    24.5290 1.4838e+03      1.123     1.2558 0.0000e+00
