* Sea-Bird SBE19plus Data File:
* FileName = C:\data\otf\2007\ctd-07121.hex
* Software Version 1.55
* Temperature SN =  5061
* Conductivity SN =  5061
* System UpLoad Time = Aug 15 2007 16:48:45
* ds
* SeacatPlus V 1.6a  SERIAL NO. 5061    15 Aug 2007  15:31:53
* vbatt = 10.9, vlith =  8.7, ioper =  61.6 ma, ipump =  57.5 ma, 
* iext01 =  95.2 ma
* iext23 =  58.1 ma
* 
* status = not logging
* number of scans to average = 1
* samples = 153039, free = 288466, casts = 154
* mode = profile, minimum cond freq = 3000, pump delay = 60 sec
* autorun = no, ignore magnetic switch = no
* battery type = alkaline, battery cutoff =  7.3 volts
* pressure sensor = strain gauge, range = 870.0
* SBE 38 = no, Gas Tension Device = no
* Ext Volt 0 = yes, Ext Volt 1 = yes, Ext Volt 2 = yes, Ext Volt 3 = yes
* echo commands = yes
* output format = raw HEX
* S>
* 
* SeacatPlus V 1.6a  SERIAL NO. 5061    15 Aug 2007  15:32:18
* temperature:  05-oct-06
*     TA0 = 1.254184e-03
*     TA1 = 2.596730e-04
*     TA2 = 5.165612e-07
*     TA3 = 1.318931e-07
*     TOFFSET = 0.000000e+00
* conductivity:  05-oct-06
*     G = -9.978144e-01
*     H = 1.555200e-01
*     I = -4.839108e-04
*     J = 6.121100e-05
*     CF0 = 2.539936e+03
*     CPCOR = -9.570000e-08
*     CTCOR = 3.250000e-06
*     CSLOPE = 1.000000e+00
* pressure S/N = 2362539, range = 870 psia:  24-aug-06
*     PA0 = 2.171091e-01
*     PA1 = 2.647085e-03
*     PA2 = 1.419397e-11
*     PTCA0 = 5.242437e+05
*     PTCA1 = 7.545345e+00
*     PTCA2 = -1.835354e-01
*     PTCB0 = 2.537125e+01
*     PTCB1 = -1.750000e-03
*     PTCB2 = 0.000000e+00
*     PTEMPA0 = -5.753989e+01
*     PTEMPA1 = 5.235813e+01
*     PTEMPA2 = -4.015521e-02
*     POFFSET = 0.000000e+00
* volt 0: offset = -4.682842e-02, slope = 1.249147e+00
* volt 1: offset = -4.695158e-02, slope = 1.248145e+00
* volt 2: offset = -4.685263e-02, slope = 1.248783e+00
* volt 3: offset = -4.690316e-02, slope = 1.249508e+00
*     EXTFREQSF = 1.000002e+00
* dh
* cast 121 23 Jul 2007 14:09:56 samples 82814 to 84006, avg = 1, stop = mag switch
* S> 
# nquan = 10
# nvalues = 161                         
# units = specified
# name 0 = depSM: Depth [salt water, m]
# name 1 = tv290C: Temperature [ITS-90, deg C]
# name 2 = sal00: Salinity [PSU]
# name 3 = sbeox0Mg/L: Oxygen, SBE 43 [mg/l]
# name 4 = sbeox0PS: Oxygen, SBE 43 [% saturation]
# name 5 = sigma-t00: Density [sigma-t, Kg/m^3 ]
# name 6 = par: PAR/Irradiance, Biospherical/Licor
# name 7 = prdM: Pressure, Strain Gauge [db]
# name 8 = flECO-AFL: Fluorescence, Wetlab ECO-AFL/FL [mg/m^3]
# name 9 = flag: flag
# span 0 =      1.000,     83.000       
# span 1 =     8.5287,    10.8615       
# span 2 =    29.1406,    31.5043       
# span 3 =    8.56227,    9.53963       
# span 4 =   92.29712,  101.15918       
# span 5 =    22.2425,    24.4527       
# span 6 = 1.5476e+00, 1.5016e+02       
# span 7 =      1.076,     83.608       
# span 8 =     0.6377,     1.5090       
# span 9 = 0.0000e+00, 0.0000e+00       
# interval = meters: 1                  
# start_time = Jul 23 2007 14:09:56
# bad_flag = -9.990e-29
# sensor 0 = Frequency 0  temperature, 5061, 05-Oct-06
# sensor 1 = Frequency 1  conductivity, 5061, 05-Oct-06, cpcor = -9.5700e-08
# sensor 2 = Pressure Number
# sensor 3 = Extrnl Volt  0  irradiance (PAR), primary, 4751, 08/10/06
# sensor 4 = Extrnl Volt  1  Oxygen, SBE, primary, 1081, 10/24/06
# sensor 5 = Extrnl Volt  2  WET Labs, ECO_AFL
# sensor 6 = Extrnl Volt  3  userpoly 0, 0627, 10/11/06
# datcnv_date = Oct 15 2007 14:49:49, 5.37e
# datcnv_in = I:\bob d\OTF_GEM\2007\ctd-07121.hex I:\Willette\OTF\CTD\5061.con
# datcnv_skipover = 0
# filter_date = Oct 15 2007 15:02:32, 5.37e
# filter_in = I:\Willette\OTF\CTD\2007\CTD Data\ctd-07121.cnv
# filter_low_pass_tc_A = 1.000
# filter_low_pass_tc_B = 0.150
# filter_low_pass_A_vars = prdM
# filter_low_pass_B_vars =
# loopedit_date = Oct 15 2007 15:06:53, 5.37e
# loopedit_in = I:\Willette\OTF\CTD\2007\CTD Data\ctd-07121.cnv
# loopedit_minVelocity = 0.250                                                                                            
# loopedit_surfaceSoak: minDepth = 5.0, maxDepth = 20, useDeckPress = 1                                                   
# loopedit_excl_bad_scans = yes
# alignctd_date = Oct 15 2007 15:14:19, 5.37e
# alignctd_in = I:\Willette\OTF\CTD\2007\CTD Data\ctd-07121.cnv
# alignctd_adv = tv290C 0.500, sbeox0Mg/L 4.000, sbeox0PS 4.000                                                                                                                                                                      
# binavg_date = Oct 15 2007 15:18:48, 5.37e
# binavg_in = I:\Willette\OTF\CTD\2007\CTD Data\ctd-07121.cnv
# binavg_bintype = meters
# binavg_binsize = 1
# binavg_excl_bad_scans = yes
# binavg_skipover = 0
# binavg_surface_bin = no, min = 0.000, max = 0.000, value = 0.000
# file_type = ascii
*END*
      5.000    10.6589    29.5088    8.56227   92.29712    22.5514 3.1100e+01      5.151     1.1621 0.0000e+00
      6.000    10.4197    29.7145    8.66332   93.32242    22.7360 2.4657e+01      6.114     0.9551 0.0000e+00
      7.000    10.2397    29.9986    8.70116   93.67450    22.9995 1.8943e+01      7.054     0.7917 0.0000e+00
      8.000    10.1873    30.1161    8.68023   93.32383    23.1090 1.4577e+01      8.148     0.7392 0.0000e+00
      9.000    10.1535    30.1362    8.74852   93.97798    23.1283 1.1606e+01      9.069     0.7394 0.0000e+00
     10.000    10.1139    30.1891    8.79999   94.51021    23.1765 9.1399e+00     10.010     0.7357 0.0000e+00
     11.000    10.0517    30.2357    8.76520   94.11990    23.2207 7.1956e+00     11.173     0.7240 0.0000e+00
     12.000     9.9803    30.2863    8.78834   94.35953    23.2712 5.9112e+00     12.114     0.7146 0.0000e+00
     13.000     9.9441    30.3453    8.83675   94.88682    23.3263 4.8747e+00     13.018     0.7222 0.0000e+00
     14.000     9.9331    30.3796    8.78291   94.30863    23.3571 4.0486e+00     14.189     0.7275 0.0000e+00
     15.000     9.9262    30.3740    8.81127   94.61645    23.3536 3.4909e+00     15.147     0.7264 0.0000e+00
     16.000     9.9269    30.3824    8.81123   94.62074    23.3608 3.0025e+00     16.082     0.7282 0.0000e+00
     17.000     9.9280    30.3813    8.75092   93.96532    23.3594 2.6545e+00     17.179     0.7323 0.0000e+00
     18.000     9.9264    30.3872    8.80486   94.54738    23.3644 2.3908e+00     18.108     0.7566 0.0000e+00
     19.000     9.9289    30.3925    8.79306   94.41739    23.3682 2.1864e+00     19.178     0.7622 0.0000e+00
     20.000     9.9257    30.3882    8.78655   94.32477    23.3650 2.0416e+00     20.197     0.7552 0.0000e+00
     21.000     9.9239    30.3957    8.85747   95.03598    23.3713 1.9260e+00     21.185     0.7697 0.0000e+00
     22.000     9.9172    30.4113    8.88841   95.28140    23.3841 1.8281e+00     22.272     0.7999 0.0000e+00
     23.000     9.8933    30.4339    8.89693   95.29389    23.4036 1.7639e+00     23.317     0.7968 0.0000e+00
     24.000     9.8559    30.4869    8.95655   95.91782    23.4507 1.7153e+00     24.228     0.8262 0.0000e+00
     25.000     9.8218    30.5276    9.05074   96.91826    23.4872 1.6759e+00     25.267     0.8780 0.0000e+00
     26.000     9.7638    30.5660    9.13461   97.81136    23.5261 1.6450e+00     26.368     0.8986 0.0000e+00
     27.000     9.7533    30.5938    9.17182   98.15817    23.5523 1.6230e+00     27.266     0.9093 0.0000e+00
     28.000     9.7449    30.5928    9.20204   98.41673    23.5531 1.6042e+00     28.296     0.9605 0.0000e+00
     29.000     9.7423    30.5983    9.22937   98.61209    23.5583 1.5912e+00     29.320     1.1398 0.0000e+00
     30.000     9.7402    30.5993    9.24720   98.75071    23.5592 1.5809e+00     30.251     1.1477 0.0000e+00
     31.000     9.7122    30.6085    9.26284   98.89107    23.5684 1.5729e+00     31.245     1.1321 0.0000e+00
     32.000     9.6792    30.6268    9.28088   99.05197    23.5876 1.5675e+00     32.266     1.1404 0.0000e+00
     33.000     9.6199    30.6537    9.29071   99.10396    23.6161 1.5634e+00     33.274     1.1414 0.0000e+00
     34.000     9.5858    30.6964    9.29714   99.09078    23.6572 1.5598e+00     34.222     1.1396 0.0000e+00
     35.000     9.5668    30.7190    9.31757   98.87261    23.6793 1.5574e+00     35.332     1.1546 0.0000e+00
     36.000     9.5353    30.7313    9.32690   98.61256    23.6924 1.5552e+00     36.405     1.2014 0.0000e+00
     37.000     9.5022    30.7489    9.34170   98.68266    23.7109 1.5543e+00     37.363     1.1788 0.0000e+00
     38.000     9.3570    30.7633    9.36220   98.83507    23.7318 1.5530e+00     38.398     1.1670 0.0000e+00
     39.000     9.1206    30.9168    9.37922   98.97772    23.8873 1.5520e+00     39.343     1.1136 0.0000e+00
     40.000     9.0165    31.0608    9.39466   99.11258    24.0275 1.5517e+00     40.413     1.0601 0.0000e+00
     41.000     8.9710    31.1061    9.40785   99.21563    24.0721 1.5511e+00     41.463     1.0379 0.0000e+00
     42.000     8.9449    31.1333    9.42190   99.33172    24.0977 1.5510e+00     42.310     1.0267 0.0000e+00
     43.000     8.9237    31.1611    9.43392   99.42152    24.1238 1.5504e+00     43.361     1.0334 0.0000e+00
     44.000     8.9027    31.1819    9.44739   99.52273    24.1432 1.5503e+00     44.519     1.0389 0.0000e+00
     45.000     8.8784    31.1983    9.44963   99.52012    24.1590 1.5505e+00     45.474     1.0384 0.0000e+00
     46.000     8.8602    31.2200    9.46115   99.60712    24.1792 1.5503e+00     46.382     1.0528 0.0000e+00
     47.000     8.8389    31.2408    9.46999   99.60317    24.1989 1.5501e+00     47.441     1.0821 0.0000e+00
     48.000     8.8187    31.2591    9.47565   99.54593    24.2164 1.5503e+00     48.546     1.0873 0.0000e+00
     49.000     8.8033    31.2735    9.47738   99.48989    24.2299 1.5501e+00     49.497     1.0835 0.0000e+00
     50.000     8.7766    31.2881    9.48087   99.43346    24.2439 1.5498e+00     50.405     1.0708 0.0000e+00
     51.000     8.7183    31.3273    9.48293   99.40158    24.2815 1.5502e+00     51.465     1.0694 0.0000e+00
     52.000     8.6549    31.3777    9.48686   99.45102    24.3303 1.5499e+00     52.522     1.0554 0.0000e+00
     53.000     8.6096    31.4222    9.48519   99.43505    24.3734 1.5498e+00     53.534     1.0646 0.0000e+00
     54.000     8.5491    31.4591    9.49259   99.51072    24.4092 1.5497e+00     54.501     1.0876 0.0000e+00
     55.000     8.5420    31.4944    9.49547   99.53484    24.4428 1.5496e+00     55.471     1.0982 0.0000e+00
     56.000     8.5445    31.4941    9.50629   99.63314    24.4427 1.5498e+00     56.573     1.1034 0.0000e+00
     57.000     8.5452    31.4921    9.50996   99.66982    24.4409 1.5499e+00     57.480     1.0926 0.0000e+00
     58.000     8.5433    31.4930    9.51165   99.68721    24.4418 1.5495e+00     58.585     1.0823 0.0000e+00
     59.000     8.5347    31.4945    9.51342   99.70608    24.4434 1.5494e+00     59.587     1.0938 0.0000e+00
     60.000     8.5305    31.5035    9.51101   99.68093    24.4518 1.5497e+00     60.473     1.1051 0.0000e+00
     61.000     8.5308    31.5043    9.51243   99.69593    24.4527 1.5496e+00     61.648     1.1229 0.0000e+00
     62.000     8.5308    31.5033    9.51508   99.72313    24.4518 1.5496e+00     62.618     1.1184 0.0000e+00
     63.000     8.5310    31.5034    9.51342   99.70571    24.4519 1.5492e+00     63.542     1.1265 0.0000e+00
     64.000     8.5312    31.5032    9.51002   99.67016    24.4517 1.5494e+00     64.647     1.1300 0.0000e+00
     65.000     8.5309    31.5029    9.50923   99.66175    24.4515 1.5491e+00     65.643     1.1327 0.0000e+00
     66.000     8.5309    31.5031    9.51252   99.69680    24.4517 1.5495e+00     66.601     1.1266 0.0000e+00
     67.000     8.5309    31.5033    9.51544   99.72867    24.4518 1.5494e+00     67.611     1.1036 0.0000e+00
     68.000     8.5309    31.5025    9.52362   99.81484    24.4512 1.5493e+00     68.673     1.1094 0.0000e+00
     69.000     8.5312    31.5029    9.52686   99.84826    24.4515 1.5493e+00     69.651     1.1141 0.0000e+00
     70.000     8.5321    31.5011    9.51756   99.75051    24.4499 1.5492e+00     70.665     1.1063 0.0000e+00
     71.000     8.5326    31.5008    9.51030   99.67468    24.4497 1.5494e+00     71.636     1.1039 0.0000e+00
     72.000     8.5324    31.5005    9.51802   99.75541    24.4494 1.5491e+00     72.673     1.1064 0.0000e+00
     73.000     8.5322    31.5003    9.52169   99.79463    24.4493 1.5488e+00     73.757     1.1231 0.0000e+00
     74.000     8.5322    31.5007    9.52049   99.78273    24.4496 1.5490e+00     74.660     1.1212 0.0000e+00
     75.000     8.5322    31.5009    9.52191   99.79835    24.4498 1.5488e+00     75.697     1.1188 0.0000e+00
     76.000     8.5326    31.5005    9.52946   99.87741    24.4494 1.5490e+00     76.723     1.1312 0.0000e+00
     77.000     8.5331    31.5000    9.52296   99.80884    24.4489 1.5490e+00     77.741     1.1117 0.0000e+00
     78.000     8.5337    31.4996    9.52533   99.83514    24.4485 1.5487e+00     78.751     1.1171 0.0000e+00
     79.000     8.5334    31.4993    9.53052   99.89025    24.4483 1.5490e+00     79.707     1.1157 0.0000e+00
     80.000     8.5333    31.4997    9.53023   99.88743    24.4487 1.5488e+00     80.799     1.1094 0.0000e+00
     81.000     8.5342    31.4991    9.53333   99.92048    24.4481 1.5487e+00     81.718     1.0995 0.0000e+00
     82.000     8.5344    31.4989    9.52668   99.85631    24.4479 1.5489e+00     82.679     1.1171 0.0000e+00
     83.000     8.5374    31.4997    9.51948   99.78286    24.4482 1.5488e+00     83.608     1.1245 0.0000e+00
     82.000     8.5383    31.4978    9.51591   99.74142    24.4463 1.5483e+00     82.769     1.0818 0.0000e+00
     81.000     8.5372    31.4986    9.52179   99.80066    24.4472 1.5485e+00     81.743     1.0587 0.0000e+00
     80.000     8.5361    31.4985    9.52446   99.82669    24.4473 1.5484e+00     80.781     1.0563 0.0000e+00
     79.000     8.5352    31.4992    9.52754   99.85755    24.4480 1.5483e+00     79.757     1.0626 0.0000e+00
     78.000     8.5339    31.4997    9.53144   99.89539    24.4485 1.5484e+00     78.735     1.1072 0.0000e+00
     77.000     8.5330    31.5003    9.52103   99.78493    24.4492 1.5481e+00     77.774     1.0867 0.0000e+00
     76.000     8.5316    31.5015    9.52065   99.78210    24.4503 1.5483e+00     76.699     1.1156 0.0000e+00
     75.000     8.5309    31.5017    9.52696   99.84959    24.4506 1.5478e+00     75.749     1.1244 0.0000e+00
     74.000     8.5317    31.5017    9.52698   99.84915    24.4505 1.5479e+00     74.665     1.1186 0.0000e+00
     73.000     8.5322    31.5009    9.52644   99.84432    24.4498 1.5478e+00     73.729     1.1028 0.0000e+00
     72.000     8.5325    31.5002    9.52990   99.87867    24.4492 1.5479e+00     72.680     1.0762 0.0000e+00
     71.000     8.5328    31.5003    9.52210   99.79656    24.4492 1.5480e+00     71.683     1.0846 0.0000e+00
     70.000     8.5317    31.5001    9.52406   99.81703    24.4492 1.5480e+00     70.664     1.1036 0.0000e+00
     69.000     8.5314    31.5012    9.52011   99.77482    24.4501 1.5478e+00     69.681     1.1311 0.0000e+00
     68.000     8.5315    31.5008    9.52091   99.78241    24.4498 1.5478e+00     68.656     1.1119 0.0000e+00
     67.000     8.5309    31.5006    9.52588   99.83388    24.4497 1.5478e+00     67.619     1.1074 0.0000e+00
     66.000     8.5304    31.5018    9.52760   99.85096    24.4507 1.5479e+00     66.645     1.1533 0.0000e+00
     65.000     8.5300    31.5024    9.53045   99.88145    24.4513 1.5479e+00     65.647     1.1115 0.0000e+00
     64.000     8.5295    31.5025    9.53220   99.89761    24.4514 1.5477e+00     64.573     1.1247 0.0000e+00
     63.000     8.5297    31.5026    9.53024   99.87821    24.4514 1.5477e+00     63.630     1.1412 0.0000e+00
     62.000     8.5287    31.5030    9.52821   99.85863    24.4519 1.5479e+00     62.610     1.1141 0.0000e+00
     61.000     8.5295    31.5030    9.52313   99.80598    24.4519 1.5478e+00     61.548     1.1009 0.0000e+00
     60.000     8.5307    31.5009    9.53296   99.90877    24.4500 1.5479e+00     60.586     1.1211 0.0000e+00
     59.000     8.5309    31.5005    9.53333   99.91343    24.4497 1.5477e+00     59.574     1.0868 0.0000e+00
     58.000     8.5309    31.5001    9.53372   99.92317    24.4493 1.5479e+00     58.548     1.1279 0.0000e+00
     57.000     8.5318    31.4995    9.53782   99.97310    24.4488 1.5478e+00     57.556     1.1087 0.0000e+00
     56.000     8.5361    31.4962    9.53958   99.99812    24.4457 1.5476e+00     56.530     1.1117 0.0000e+00
     55.000     8.5395    31.4919    9.53747   99.99668    24.4417 1.5478e+00     55.558     1.1109 0.0000e+00
     54.000     8.5438    31.4884    9.53901  100.07414    24.4384 1.5480e+00     54.494     1.0984 0.0000e+00
     53.000     8.5639    31.4782    9.53258  100.05744    24.4285 1.5477e+00     53.523     1.0837 0.0000e+00
     52.000     8.5962    31.4508    9.53749  100.21796    24.4021 1.5476e+00     52.465     1.0988 0.0000e+00
     51.000     8.6236    31.4312    9.53963  100.30902    24.3832 1.5476e+00     51.545     1.0786 0.0000e+00
     50.000     8.6946    31.3762    9.52688  100.24500    24.3302 1.5478e+00     50.431     1.0221 0.0000e+00
     49.000     8.7327    31.3419    9.52968  100.30524    24.2972 1.5478e+00     49.537     1.0249 0.0000e+00
     48.000     8.7670    31.3069    9.52150  100.29592    24.2635 1.5481e+00     48.383     1.0295 0.0000e+00
     47.000     8.7898    31.2912    9.52525  100.35699    24.2485 1.5476e+00     47.503     1.0430 0.0000e+00
     46.000     8.8312    31.2487    9.52601  100.40646    24.2086 1.5480e+00     46.394     1.0435 0.0000e+00
     45.000     8.8477    31.2340    9.52156  100.37953    24.1945 1.5478e+00     45.427     1.0469 0.0000e+00
     44.000     8.8646    31.2170    9.51619  100.36505    24.1784 1.5481e+00     44.444     1.0440 0.0000e+00
     43.000     8.8800    31.2023    9.51814  100.42920    24.1647 1.5484e+00     43.399     1.0408 0.0000e+00
     42.000     8.9116    31.1734    9.50911  100.36993    24.1378 1.5486e+00     42.383     1.0260 0.0000e+00
     41.000     8.9332    31.1498    9.50786  100.41898    24.1157 1.5488e+00     41.402     1.0176 0.0000e+00
     40.000     8.9551    31.1294    9.50331  100.55067    24.0965 1.5492e+00     40.386     0.9976 0.0000e+00
     39.000     8.9976    31.1027    9.48879  100.78382    24.0706 1.5500e+00     39.352     1.0044 0.0000e+00
     38.000     9.1233    31.0325    9.47991  100.99306    24.0010 1.5507e+00     38.355     1.0201 0.0000e+00
     37.000     9.3338    30.8981    9.46740  100.96562    23.8653 1.5519e+00     37.375     1.0381 0.0000e+00
     36.000     9.4751    30.7858    9.44392  100.75571    23.7504 1.5533e+00     36.393     0.9932 0.0000e+00
     35.000     9.5327    30.7395    9.43288  100.69375    23.7025 1.5553e+00     35.327     1.0036 0.0000e+00
     34.000     9.5599    30.7234    9.43135  100.73341    23.6856 1.5580e+00     34.288     1.0724 0.0000e+00
     33.000     9.5812    30.7068    9.41937  100.70515    23.6695 1.5620e+00     33.306     1.0501 0.0000e+00
     32.000     9.6183    30.6839    9.41429  100.69713    23.6470 1.5665e+00     32.290     1.0321 0.0000e+00
     31.000     9.6659    30.6518    9.40424  100.63440    23.6138 1.5733e+00     31.244     1.0392 0.0000e+00
     30.000     9.6814    30.6361    9.39208  100.53615    23.5983 1.5822e+00     30.324     0.9849 0.0000e+00
     29.000     9.7058    30.6235    9.39708  100.61343    23.5850 1.5937e+00     29.234     1.0244 0.0000e+00
     28.000     9.7250    30.6062    9.38436  100.47685    23.5683 1.6087e+00     28.308     0.9228 0.0000e+00
     27.000     9.7400    30.5925    9.38322  100.55561    23.5546 1.6295e+00     27.235     0.9204 0.0000e+00
     26.000     9.7430    30.5833    9.37997  100.56693    23.5471 1.6555e+00     26.279     0.8747 0.0000e+00
     25.000     9.7920    30.5597    9.37902  100.57446    23.5231 1.6888e+00     25.231     0.8733 0.0000e+00
     24.000     9.8219    30.5235    9.37586  100.57204    23.4883 1.7336e+00     24.250     0.8615 0.0000e+00
     23.000     9.8397    30.4914    9.37270  100.55064    23.4605 1.7902e+00     23.297     0.8261 0.0000e+00
     22.000     9.8834    30.4217    9.38019  100.65666    23.3993 1.8695e+00     22.128     0.6528 0.0000e+00
     21.000     9.8916    30.3826    9.38252  100.67944    23.3666 1.9705e+00     21.209     0.6748 0.0000e+00
     20.000     9.8963    30.3874    9.38391  100.69873    23.3696 2.1078e+00     20.200     0.6768 0.0000e+00
     19.000     9.8999    30.3775    9.38247  100.69026    23.3612 2.2840e+00     19.162     0.6549 0.0000e+00
     18.000     9.9037    30.3713    9.38515  100.72080    23.3558 2.5151e+00     18.199     0.6431 0.0000e+00
     17.000     9.9098    30.3609    9.38088  100.67722    23.3467 2.8263e+00     17.124     0.6558 0.0000e+00
     16.000     9.9105    30.3584    9.37717  100.64121    23.3445 3.2269e+00     16.200     0.6605 0.0000e+00
     15.000     9.9126    30.3562    9.37508  100.62364    23.3426 3.7638e+00     15.055     0.6615 0.0000e+00
     14.000     9.9152    30.3518    9.38212  100.70756    23.3387 4.4629e+00     14.197     0.6456 0.0000e+00
     13.000     9.9187    30.3484    9.37982  100.71237    23.3355 5.3733e+00     13.040     0.6524 0.0000e+00
     12.000     9.9256    30.3424    9.38111  100.82393    23.3300 6.6136e+00     12.129     0.6377 0.0000e+00
     11.000     9.9430    30.3289    9.37801  100.91243    23.3172 8.2197e+00     11.116     0.6453 0.0000e+00
     10.000    10.0117    30.2809    9.36346  100.84379    23.2715 1.0310e+01     10.075     0.6572 0.0000e+00
      9.000    10.0757    30.2202    9.36001  100.85650    23.2126 1.3053e+01      9.104     0.6684 0.0000e+00
      8.000    10.1299    30.1714    9.35405  100.81188    23.1658 1.6588e+01      8.075     0.6670 0.0000e+00
      7.000    10.1582    30.1372    9.34150  100.75101    23.1329 2.1521e+01      7.065     0.6793 0.0000e+00
      6.000    10.1690    30.1245    9.33771  101.01899    23.1209 2.7926e+01      6.056     0.6955 0.0000e+00
      5.000    10.2324    30.0784    9.32474  101.15918    23.0802 3.6141e+01      5.041     0.7486 0.0000e+00
      4.000    10.4485    29.8468    9.30155  101.10101    22.8684 4.7620e+01      4.055     1.0051 0.0000e+00
      3.000    10.6656    29.5746    9.26285  100.71819    22.6212 6.2097e+01      3.002     1.4531 0.0000e+00
      2.000    10.8170    29.2813    9.22023  100.24716    22.3609 8.2957e+01      2.034     1.5090 0.0000e+00
      1.000    10.8615    29.1406    9.09434   98.78759    22.2425 1.5016e+02      1.076     1.4673 0.0000e+00
