* Sea-Bird SBE19plus Data File:
* FileName = C:\data\otf\2007\ctd-07013.hex
* Software Version 1.55
* Temperature SN =  5061
* Conductivity SN =  5061
* System UpLoad Time = Aug 15 2007 15:43:18
* ds
* SeacatPlus V 1.6a  SERIAL NO. 5061    15 Aug 2007  15:31:53
* vbatt = 10.9, vlith =  8.7, ioper =  61.6 ma, ipump =  57.5 ma, 
* iext01 =  95.2 ma
* iext23 =  58.1 ma
* 
* status = not logging
* number of scans to average = 1
* samples = 153039, free = 288466, casts = 154
* mode = profile, minimum cond freq = 3000, pump delay = 60 sec
* autorun = no, ignore magnetic switch = no
* battery type = alkaline, battery cutoff =  7.3 volts
* pressure sensor = strain gauge, range = 870.0
* SBE 38 = no, Gas Tension Device = no
* Ext Volt 0 = yes, Ext Volt 1 = yes, Ext Volt 2 = yes, Ext Volt 3 = yes
* echo commands = yes
* output format = raw HEX
* S>
* 
* SeacatPlus V 1.6a  SERIAL NO. 5061    15 Aug 2007  15:32:18
* temperature:  05-oct-06
*     TA0 = 1.254184e-03
*     TA1 = 2.596730e-04
*     TA2 = 5.165612e-07
*     TA3 = 1.318931e-07
*     TOFFSET = 0.000000e+00
* conductivity:  05-oct-06
*     G = -9.978144e-01
*     H = 1.555200e-01
*     I = -4.839108e-04
*     J = 6.121100e-05
*     CF0 = 2.539936e+03
*     CPCOR = -9.570000e-08
*     CTCOR = 3.250000e-06
*     CSLOPE = 1.000000e+00
* pressure S/N = 2362539, range = 870 psia:  24-aug-06
*     PA0 = 2.171091e-01
*     PA1 = 2.647085e-03
*     PA2 = 1.419397e-11
*     PTCA0 = 5.242437e+05
*     PTCA1 = 7.545345e+00
*     PTCA2 = -1.835354e-01
*     PTCB0 = 2.537125e+01
*     PTCB1 = -1.750000e-03
*     PTCB2 = 0.000000e+00
*     PTEMPA0 = -5.753989e+01
*     PTEMPA1 = 5.235813e+01
*     PTEMPA2 = -4.015521e-02
*     POFFSET = 0.000000e+00
* volt 0: offset = -4.682842e-02, slope = 1.249147e+00
* volt 1: offset = -4.695158e-02, slope = 1.248145e+00
* volt 2: offset = -4.685263e-02, slope = 1.248783e+00
* volt 3: offset = -4.690316e-02, slope = 1.249508e+00
*     EXTFREQSF = 1.000002e+00
* dh
* cast  13 04 Jul 2007 08:29:38 samples 12635 to 13985, avg = 1, stop = mag switch
* S> 
# nquan = 10
# nvalues = 175                         
# units = specified
# name 0 = depSM: Depth [salt water, m]
# name 1 = tv290C: Temperature [ITS-90, deg C]
# name 2 = sal00: Salinity [PSU]
# name 3 = sbeox0Mg/L: Oxygen, SBE 43 [mg/l]
# name 4 = sbeox0PS: Oxygen, SBE 43 [% saturation]
# name 5 = sigma-t00: Density [sigma-t, Kg/m^3 ]
# name 6 = par: PAR/Irradiance, Biospherical/Licor
# name 7 = prdM: Pressure, Strain Gauge [db]
# name 8 = flECO-AFL: Fluorescence, Wetlab ECO-AFL/FL [mg/m^3]
# name 9 = flag: flag
# span 0 =      1.000,     90.000       
# span 1 =     7.6205,     7.7252       
# span 2 =    31.5346,    31.6078       
# span 3 =    9.02191,   11.60239       
# span 4 =   92.84237,  108.66213       
# span 5 =    24.5931,    24.6640       
# span 6 = 1.5486e+00, 3.0577e+02       
# span 7 =      1.079,     90.727       
# span 8 =     0.8774,     1.3105       
# span 9 = 0.0000e+00, 0.0000e+00       
# interval = meters: 1                  
# start_time = Jul 04 2007 08:29:38
# bad_flag = -9.990e-29
# sensor 0 = Frequency 0  temperature, 5061, 05-Oct-06
# sensor 1 = Frequency 1  conductivity, 5061, 05-Oct-06, cpcor = -9.5700e-08
# sensor 2 = Pressure Number
# sensor 3 = Extrnl Volt  0  irradiance (PAR), primary, 4751, 08/10/06
# sensor 4 = Extrnl Volt  1  Oxygen, SBE, primary, 1081, 10/24/06
# sensor 5 = Extrnl Volt  2  WET Labs, ECO_AFL
# sensor 6 = Extrnl Volt  3  userpoly 0, 0627, 10/11/06
# datcnv_date = Oct 15 2007 14:49:42, 5.37e
# datcnv_in = I:\bob d\OTF_GEM\2007\ctd-07013.hex I:\Willette\OTF\CTD\5061.con
# datcnv_skipover = 0
# filter_date = Oct 15 2007 15:02:18, 5.37e
# filter_in = I:\Willette\OTF\CTD\2007\CTD Data\ctd-07013.cnv
# filter_low_pass_tc_A = 1.000
# filter_low_pass_tc_B = 0.150
# filter_low_pass_A_vars = prdM
# filter_low_pass_B_vars =
# loopedit_date = Oct 15 2007 15:06:42, 5.37e
# loopedit_in = I:\Willette\OTF\CTD\2007\CTD Data\ctd-07013.cnv
# loopedit_minVelocity = 0.250                                                                                            
# loopedit_surfaceSoak: minDepth = 5.0, maxDepth = 20, useDeckPress = 1                                                   
# loopedit_excl_bad_scans = yes
# alignctd_date = Oct 15 2007 15:14:12, 5.37e
# alignctd_in = I:\Willette\OTF\CTD\2007\CTD Data\ctd-07013.cnv
# alignctd_adv = tv290C 0.500, sbeox0Mg/L 4.000, sbeox0PS 4.000                                                                                                                                                                      
# binavg_date = Oct 15 2007 15:18:40, 5.37e
# binavg_in = I:\Willette\OTF\CTD\2007\CTD Data\ctd-07013.cnv
# binavg_bintype = meters
# binavg_binsize = 1
# binavg_excl_bad_scans = yes
# binavg_skipover = 0
# binavg_surface_bin = no, min = 0.000, max = 0.000, value = 0.000
# file_type = ascii
*END*
      5.000     7.7252    31.5687    9.02191   92.84237    24.6188 1.4405e+02      5.109     0.9393 0.0000e+00
      6.000     7.7201    31.5566    9.09253   93.55338    24.6098 1.2081e+02      6.106     0.9641 0.0000e+00
      7.000     7.7162    31.5606    9.14605   94.09575    24.6137 9.9196e+01      7.070     1.0331 0.0000e+00
      8.000     7.7119    31.5508    9.31227   95.80283    24.6064 8.2291e+01      8.116     1.0669 0.0000e+00
      9.000     7.7094    31.5523    9.35205   96.21656    24.6081 6.9881e+01      9.107     1.0300 0.0000e+00
     10.000     7.7060    31.5509    9.30978   95.77776    24.6074 5.8665e+01     10.026     1.0631 0.0000e+00
     11.000     7.7081    31.5549    9.24226   95.07391    24.6105 4.8921e+01     11.057     1.0913 0.0000e+00
     12.000     7.7059    31.5538    9.30337   95.69476    24.6097 4.0914e+01     12.150     1.0417 0.0000e+00
     13.000     7.7022    31.5509    9.44622   97.16195    24.6079 3.4531e+01     13.197     1.0266 0.0000e+00
     14.000     7.7001    31.5497    9.51083   97.82589    24.6073 2.9335e+01     14.196     1.0545 0.0000e+00
     15.000     7.7000    31.5501    9.52781   97.99936    24.6077 2.4978e+01     15.165     1.0312 0.0000e+00
     16.000     7.6989    31.5483    9.56821   98.41475    24.6064 2.1358e+01     16.151     1.0274 0.0000e+00
     17.000     7.6994    31.5487    9.59476   98.68775    24.6067 1.8200e+01     17.198     1.0319 0.0000e+00
     18.000     7.6991    31.5472    9.60994   98.84410    24.6055 1.5608e+01     18.192     1.0468 0.0000e+00
     19.000     7.6991    31.5474    9.61795   98.92411    24.6057 1.3389e+01     19.193     1.0082 0.0000e+00
     20.000     7.6994    31.5465    9.69410   99.70762    24.6049 1.1567e+01     20.234     1.0837 0.0000e+00
     21.000     7.6990    31.5470    9.80404  100.82700    24.6055 1.0084e+01     21.194     1.0948 0.0000e+00
     22.000     7.6988    31.5461    9.88721  101.66748    24.6047 8.7913e+00     22.214     0.9949 0.0000e+00
     23.000     7.6985    31.5452    9.93075  102.10820    24.6041 7.6943e+00     23.252     0.9377 0.0000e+00
     24.000     7.6980    31.5450    9.95855  102.38863    24.6039 6.7838e+00     24.208     1.0765 0.0000e+00
     25.000     7.6877    31.5427    9.99476  102.75687    24.6030 5.9734e+00     25.237     1.1471 0.0000e+00
     26.000     7.6851    31.5468   10.00842  102.89735    24.6071 5.3127e+00     26.280     1.0586 0.0000e+00
     27.000     7.6822    31.5470   10.02420  103.06292    24.6076 4.7480e+00     27.221     1.0009 0.0000e+00
     28.000     7.6798    31.5488   10.03144  103.13330    24.6093 4.2610e+00     28.218     0.9835 0.0000e+00
     29.000     7.6790    31.5504   10.03512  103.16310    24.6109 3.8450e+00     29.147     1.0002 0.0000e+00
     30.000     7.6805    31.5514   10.04395  103.24510    24.6115 3.4868e+00     30.217     0.9922 0.0000e+00
     31.000     7.6749    31.5513   10.05880  103.37986    24.6119 3.1921e+00     31.302     1.0221 0.0000e+00
     32.000     7.6716    31.5526   10.08343  103.62980    24.6133 2.9455e+00     32.393     1.0672 0.0000e+00
     33.000     7.6631    31.5557   10.08431  103.63843    24.6170 2.7360e+00     33.360     0.9641 0.0000e+00
     34.000     7.6612    31.5582   10.08503  103.64656    24.6195 2.5576e+00     34.359     0.9897 0.0000e+00
     35.000     7.6606    31.5583   10.08103  103.61359    24.6195 2.4033e+00     35.348     1.0394 0.0000e+00
     36.000     7.6605    31.5591   10.09316  103.73830    24.6203 2.2764e+00     36.388     1.0387 0.0000e+00
     37.000     7.6609    31.5590   10.09967  103.80324    24.6202 2.1652e+00     37.330     1.0189 0.0000e+00
     38.000     7.6651    31.5589   10.10346  103.83793    24.6197 2.0686e+00     38.399     1.0227 0.0000e+00
     39.000     7.6651    31.5561   10.10520  103.85501    24.6172 1.9903e+00     39.396     1.0501 0.0000e+00
     40.000     7.6639    31.5568   10.11581  103.96523    24.6179 1.9235e+00     40.395     1.0239 0.0000e+00
     41.000     7.6623    31.5570   10.11209  103.92464    24.6182 1.8667e+00     41.420     0.9337 0.0000e+00
     42.000     7.6610    31.5584   10.10707  103.87227    24.6196 1.8183e+00     42.404     0.9951 0.0000e+00
     43.000     7.6619    31.5586   10.11487  103.95468    24.6197 1.7781e+00     43.438     1.0691 0.0000e+00
     44.000     7.6618    31.5584   10.10473  103.85045    24.6195 1.7427e+00     44.452     1.0764 0.0000e+00
     45.000     7.6597    31.5586   10.11038  103.90793    24.6199 1.7132e+00     45.411     1.1416 0.0000e+00
     46.000     7.6608    31.5604   10.10913  103.89654    24.6214 1.6889e+00     46.415     1.0808 0.0000e+00
     47.000     7.6613    31.5597   10.10294  103.83114    24.6207 1.6678e+00     47.326     1.0236 0.0000e+00
     48.000     7.6610    31.5592   10.10403  103.83867    24.6203 1.6491e+00     48.399     1.0919 0.0000e+00
     49.000     7.6614    31.5596   10.09289  103.71874    24.6206 1.6340e+00     49.493     1.0228 0.0000e+00
     50.000     7.6599    31.5600   10.12657  104.06667    24.6210 1.6215e+00     50.519     1.2093 0.0000e+00
     51.000     7.6580    31.5620   10.11763  103.97181    24.6227 1.6113e+00     51.531     1.0097 0.0000e+00
     52.000     7.6553    31.5647   10.10186  103.80464    24.6253 1.6015e+00     52.538     1.1167 0.0000e+00
     53.000     7.6561    31.5655   10.09764  103.75498    24.6260 1.5945e+00     53.559     1.0764 0.0000e+00
     54.000     7.6550    31.5648   10.10581  103.83942    24.6254 1.5876e+00     54.513     1.1137 0.0000e+00
     55.000     7.6528    31.5665   10.11225  103.90286    24.6269 1.5820e+00     55.553     1.0956 0.0000e+00
     56.000     7.6509    31.5685   10.10316  103.80346    24.6289 1.5772e+00     56.518     1.0182 0.0000e+00
     57.000     7.6483    31.5708   10.11909  103.96461    24.6311 1.5759e+00     57.552     1.0272 0.0000e+00
     58.000     7.6488    31.5702   10.09501  103.71713    24.6306 1.5740e+00     58.565     1.1304 0.0000e+00
     59.000     7.6461    31.5711   10.09436  103.70986    24.6315 1.5679e+00     59.538     1.1271 0.0000e+00
     60.000     7.6434    31.5740   10.09267  103.68924    24.6342 1.5640e+00     60.557     1.0403 0.0000e+00
     61.000     7.6427    31.5749   10.09404  103.70162    24.6351 1.5595e+00     61.550     1.0072 0.0000e+00
     62.000     7.6429    31.5754   10.10119  103.77396    24.6355 1.5569e+00     62.611     1.0417 0.0000e+00
     63.000     7.6405    31.5776   10.09762  103.73398    24.6374 1.5571e+00     63.575     1.0417 0.0000e+00
     64.000     7.6391    31.5799   10.10222  103.77353    24.6395 1.5561e+00     64.615     1.0594 0.0000e+00
     65.000     7.6390    31.5804   10.12397  103.99300    24.6400 1.5559e+00     65.646     1.1264 0.0000e+00
     66.000     7.6367    31.5823   10.12151  103.96567    24.6417 1.5548e+00     66.617     1.0177 0.0000e+00
     67.000     7.6324    31.5853   10.08988  103.64008    24.6444 1.5544e+00     67.656     1.0979 0.0000e+00
     68.000     7.6297    31.5905   10.08844  103.62606    24.6491 1.5538e+00     68.650     1.1204 0.0000e+00
     69.000     7.6281    31.5921   10.08505  103.59261    24.6506 1.5530e+00     69.640     1.1139 0.0000e+00
     70.000     7.6276    31.5936   10.09191  103.66588    24.6519 1.5526e+00     70.669     1.1076 0.0000e+00
     71.000     7.6278    31.5936   10.09314  103.67873    24.6519 1.5521e+00     71.685     1.1583 0.0000e+00
     72.000     7.6288    31.5926   10.09373  103.68646    24.6510 1.5519e+00     72.677     1.1184 0.0000e+00
     73.000     7.6303    31.5909   10.09586  103.70517    24.6495 1.5515e+00     73.697     1.1358 0.0000e+00
     74.000     7.6307    31.5908   10.09456  103.68999    24.6493 1.5511e+00     74.720     1.1162 0.0000e+00
     75.000     7.6314    31.5892   10.09412  103.68555    24.6480 1.5509e+00     75.717     1.0617 0.0000e+00
     76.000     7.6294    31.5915   10.09360  103.67216    24.6499 1.5507e+00     76.732     1.1017 0.0000e+00
     77.000     7.6283    31.5935   10.10879  103.82745    24.6517 1.5508e+00     77.719     1.0677 0.0000e+00
     78.000     7.6279    31.5943   10.11406  103.88088    24.6524 1.5510e+00     78.688     1.0552 0.0000e+00
     79.000     7.6224    31.6022   10.13072  104.05222    24.6592 1.5505e+00     79.669     1.1495 0.0000e+00
     80.000     7.6212    31.6056   10.14401  104.18908    24.6623 1.5506e+00     80.829     1.2066 0.0000e+00
     81.000     7.6212    31.6055   10.11663  103.90821    24.6621 1.5505e+00     81.813     1.1632 0.0000e+00
     82.000     7.6213    31.6055   10.11074  103.84728    24.6622 1.5504e+00     82.803     1.1424 0.0000e+00
     83.000     7.6214    31.6052   10.11382  103.87908    24.6619 1.5500e+00     83.792     1.1362 0.0000e+00
     84.000     7.6210    31.6064   10.11112  103.85103    24.6629 1.5499e+00     84.798     1.1375 0.0000e+00
     85.000     7.6209    31.6069   10.11893  103.93136    24.6633 1.5500e+00     85.870     1.2751 0.0000e+00
     86.000     7.6207    31.6076   10.14175  104.16596    24.6639 1.5499e+00     86.844     1.1316 0.0000e+00
     87.000     7.6205    31.6076   10.13646  104.11162    24.6639 1.5498e+00     87.860     1.0476 0.0000e+00
     88.000     7.6207    31.6078   10.08557  103.58917    24.6640 1.5501e+00     88.786     1.2757 0.0000e+00
     89.000     7.6208    31.6076   10.09152  103.65062    24.6638 1.5498e+00     89.737     1.0948 0.0000e+00
     90.000     7.6213    31.6075   10.10810  103.82113    24.6637 1.5486e+00     90.727     1.1651 0.0000e+00
     89.000     7.6216    31.6076   10.10360  103.77542    24.6637 1.5494e+00     89.822     1.1022 0.0000e+00
     88.000     7.6212    31.6076   10.11448  103.88728    24.6638 1.5496e+00     88.818     1.2023 0.0000e+00
     87.000     7.6214    31.6074   10.12444  103.98963    24.6637 1.5496e+00     87.832     1.1258 0.0000e+00
     86.000     7.6216    31.6067   10.13031  104.04948    24.6630 1.5495e+00     86.817     1.0688 0.0000e+00
     85.000     7.6216    31.6067   10.13136  104.06016    24.6630 1.5494e+00     85.809     1.2597 0.0000e+00
     84.000     7.6213    31.6071   10.13535  104.10127    24.6634 1.5496e+00     84.843     1.0855 0.0000e+00
     83.000     7.6213    31.6072   10.13429  104.09164    24.6635 1.5494e+00     83.801     1.0784 0.0000e+00
     82.000     7.6216    31.6068   10.14369  104.18888    24.6631 1.5496e+00     82.766     1.1133 0.0000e+00
     81.000     7.6230    31.6037   10.13932  104.14423    24.6605 1.5498e+00     81.788     1.2181 0.0000e+00
     80.000     7.6234    31.6024   10.14279  104.17933    24.6594 1.5500e+00     80.780     1.1095 0.0000e+00
     79.000     7.6236    31.6022   10.13396  104.08855    24.6593 1.5500e+00     79.768     1.2005 0.0000e+00
     78.000     7.6234    31.6022   10.14856  104.23869    24.6593 1.5500e+00     78.739     1.2111 0.0000e+00
     77.000     7.6235    31.6019   10.16175  104.37637    24.6590 1.5499e+00     77.704     1.2705 0.0000e+00
     76.000     7.6240    31.6008   10.16049  104.36468    24.6581 1.5502e+00     76.727     1.1536 0.0000e+00
     75.000     7.6254    31.5985   10.15781  104.33785    24.6561 1.5503e+00     75.756     1.1124 0.0000e+00
     74.000     7.6264    31.5966   10.15512  104.31153    24.6545 1.5505e+00     74.708     1.0795 0.0000e+00
     73.000     7.6271    31.5960   10.15103  104.27177    24.6539 1.5507e+00     73.662     1.2147 0.0000e+00
     72.000     7.6280    31.5940   10.15681  104.33334    24.6522 1.5511e+00     72.704     1.1321 0.0000e+00
     71.000     7.6292    31.5928   10.16899  104.45895    24.6512 1.5514e+00     71.711     1.1535 0.0000e+00
     70.000     7.6309    31.5905   10.16794  104.45098    24.6491 1.5518e+00     70.657     1.0839 0.0000e+00
     69.000     7.6313    31.5899   10.17569  104.53188    24.6485 1.5524e+00     69.641     0.9873 0.0000e+00
     68.000     7.6330    31.5877   10.17932  104.56946    24.6466 1.5538e+00     68.667     1.0642 0.0000e+00
     67.000     7.6339    31.5862   10.18444  104.62214    24.6454 1.5549e+00     67.621     1.0866 0.0000e+00
     66.000     7.6342    31.5857   10.18358  104.61180    24.6448 1.5551e+00     66.628     1.0651 0.0000e+00
     65.000     7.6344    31.5853   10.18495  104.62690    24.6445 1.5560e+00     65.600     1.1188 0.0000e+00
     64.000     7.6333    31.5862   10.19162  104.69746    24.6453 1.5576e+00     64.634     1.0736 0.0000e+00
     63.000     7.6338    31.5863   10.19959  104.78099    24.6453 1.5589e+00     63.585     1.1331 0.0000e+00
     62.000     7.6349    31.5852   10.20768  104.86604    24.6444 1.5607e+00     62.586     1.0892 0.0000e+00
     61.000     7.6362    31.5830   10.20656  104.85579    24.6424 1.5627e+00     61.592     1.2007 0.0000e+00
     60.000     7.6371    31.5821   10.20984  104.88956    24.6416 1.5650e+00     60.592     1.0647 0.0000e+00
     59.000     7.6380    31.5812   10.20732  104.86831    24.6408 1.5682e+00     59.585     1.1129 0.0000e+00
     58.000     7.6383    31.5809   10.20316  104.83111    24.6405 1.5720e+00     58.565     1.1241 0.0000e+00
     57.000     7.6409    31.5790   10.20351  104.83545    24.6388 1.5765e+00     57.531     0.9694 0.0000e+00
     56.000     7.6442    31.5750   10.19520  104.75627    24.6351 1.5814e+00     56.538     1.1192 0.0000e+00
     55.000     7.6447    31.5739   10.20085  104.81770    24.6342 1.5875e+00     55.537     1.0302 0.0000e+00
     54.000     7.6478    31.5722   10.20896  104.89931    24.6325 1.5946e+00     54.524     1.1836 0.0000e+00
     53.000     7.6500    31.5694   10.20731  104.88289    24.6299 1.6032e+00     53.499     0.9814 0.0000e+00
     52.000     7.6490    31.5701   10.20498  104.86179    24.6305 1.6132e+00     52.520     1.1275 0.0000e+00
     51.000     7.6492    31.5701   10.20860  104.90042    24.6305 1.6247e+00     51.521     1.0758 0.0000e+00
     50.000     7.6515    31.5691   10.21449  104.95667    24.6295 1.6386e+00     50.462     1.0308 0.0000e+00
     49.000     7.6509    31.5673   10.21605  104.98337    24.6279 1.6549e+00     49.485     1.0079 0.0000e+00
     48.000     7.6505    31.5695   10.21657  104.99127    24.6300 1.6741e+00     48.443     1.1226 0.0000e+00
     47.000     7.6563    31.5648   10.22568  105.08622    24.6254 1.6975e+00     47.461     1.0424 0.0000e+00
     46.000     7.6559    31.5642   10.22882  105.12285    24.6249 1.7232e+00     46.468     1.1257 0.0000e+00
     45.000     7.6583    31.5631   10.22287  105.06287    24.6238 1.7552e+00     45.425     1.1083 0.0000e+00
     44.000     7.6596    31.5615   10.22510  105.08831    24.6223 1.7932e+00     44.416     1.1126 0.0000e+00
     43.000     7.6611    31.5604   10.23933  105.23051    24.6213 1.8375e+00     43.413     0.9523 0.0000e+00
     42.000     7.6603    31.5601   10.24394  105.28212    24.6210 1.8896e+00     42.415     1.0464 0.0000e+00
     41.000     7.6600    31.5613   10.23565  105.20367    24.6222 1.9535e+00     41.373     0.9840 0.0000e+00
     40.000     7.6627    31.5590   10.24227  105.28300    24.6200 2.0271e+00     40.360     1.0065 0.0000e+00
     39.000     7.6673    31.5572   10.24454  105.30930    24.6180 2.1124e+00     39.401     0.9734 0.0000e+00
     38.000     7.6712    31.5546   10.24537  105.31074    24.6153 2.2158e+00     38.357     1.0899 0.0000e+00
     37.000     7.6714    31.5537   10.24002  105.24887    24.6144 2.3379e+00     37.324     1.0498 0.0000e+00
     36.000     7.6667    31.5555   10.22936  105.14913    24.6165 2.4804e+00     36.334     1.0724 0.0000e+00
     35.000     7.6665    31.5572   10.23055  105.16506    24.6181 2.6480e+00     35.329     1.1826 0.0000e+00
     34.000     7.6704    31.5555   10.23800  105.24156    24.6162 2.8475e+00     34.349     1.0031 0.0000e+00
     33.000     7.6717    31.5541   10.23805  105.24451    24.6148 3.0918e+00     33.297     1.1820 0.0000e+00
     32.000     7.6714    31.5540   10.25149  105.38518    24.6147 3.3683e+00     32.290     1.0669 0.0000e+00
     31.000     7.6729    31.5539   10.26608  105.54090    24.6146 3.7001e+00     31.297     1.1020 0.0000e+00
     30.000     7.6740    31.5532   10.26299  105.51295    24.6138 4.0987e+00     30.302     1.0373 0.0000e+00
     29.000     7.6772    31.5521   10.27095  105.59578    24.6126 4.5714e+00     29.245     1.0617 0.0000e+00
     28.000     7.6787    31.5507   10.27462  105.63436    24.6112 5.1210e+00     28.250     0.9688 0.0000e+00
     27.000     7.6789    31.5503   10.28930  105.78464    24.6108 5.7707e+00     27.291     1.0081 0.0000e+00
     26.000     7.6795    31.5502   10.29662  105.86250    24.6107 6.5332e+00     26.215     1.1317 0.0000e+00
     25.000     7.6789    31.5504   10.30059  105.90455    24.6109 7.4343e+00     25.253     1.0353 0.0000e+00
     24.000     7.6803    31.5499   10.29646  105.86207    24.6104 8.5332e+00     24.228     1.0550 0.0000e+00
     23.000     7.6809    31.5493   10.30438  105.94526    24.6098 9.8087e+00     23.212     0.9828 0.0000e+00
     22.000     7.6810    31.5489   10.30656  105.97724    24.6094 1.1287e+01     22.205     1.2982 0.0000e+00
     21.000     7.6820    31.5489   10.32394  106.16872    24.6094 1.3026e+01     21.200     1.0513 0.0000e+00
     20.000     7.6864    31.5482   10.33553  106.29314    24.6083 1.5100e+01     20.189     0.9197 0.0000e+00
     19.000     7.6921    31.5464   10.33355  106.27429    24.6061 1.7474e+01     19.194     0.9959 0.0000e+00
     18.000     7.6944    31.5446   10.33503  106.28989    24.6042 2.0356e+01     18.177     1.1272 0.0000e+00
     17.000     7.6954    31.5431   10.34552  106.39723    24.6029 2.3750e+01     17.164     1.0715 0.0000e+00
     16.000     7.6958    31.5416   10.35968  106.54344    24.6017 2.7740e+01     16.133     1.1058 0.0000e+00
     15.000     7.6957    31.5409   10.36740  106.62385    24.6011 3.2401e+01     15.161     1.0308 0.0000e+00
     14.000     7.6960    31.5409   10.36313  106.58093    24.6011 3.7762e+01     14.114     1.0957 0.0000e+00
     13.000     7.6966    31.5405   10.37640  106.71743    24.6007 4.4025e+01     13.140     1.0398 0.0000e+00
     12.000     7.6971    31.5398   10.39265  106.88611    24.6000 5.0776e+01     12.082     0.9946 0.0000e+00
     11.000     7.6971    31.5398   10.38648  106.82630    24.6000 5.8722e+01     11.135     1.0811 0.0000e+00
     10.000     7.6980    31.5395   10.39085  106.87354    24.5998 6.5901e+01     10.062     1.0060 0.0000e+00
      9.000     7.7000    31.5380   10.40198  106.99278    24.5983 7.5164e+01      9.103     1.0228 0.0000e+00
      8.000     7.7013    31.5365   10.43204  107.31733    24.5970 8.4879e+01      8.074     1.3105 0.0000e+00
      7.000     7.7036    31.5356   10.45010  107.51253    24.5959 9.5972e+01      7.038     1.2916 0.0000e+00
      6.000     7.7099    31.5360   10.47891  107.81249    24.5955 1.0731e+02      6.056     1.0665 0.0000e+00
      5.000     7.7133    31.5354   10.50020  108.03571    24.5944 1.1943e+02      5.083     1.0706 0.0000e+00
      4.000     7.7149    31.5349   10.53343  108.38060    24.5937 1.2812e+02      4.012     1.1042 0.0000e+00
      3.000     7.7167    31.5355   10.54306  108.48029    24.5940 1.3743e+02      3.026     0.9689 0.0000e+00
      2.000     7.7177    31.5346   11.60239  108.66213    24.5931 1.5105e+02      2.041     0.8910 0.0000e+00
      1.000     7.7183    31.5352   11.59769  106.79682    24.5936 3.0577e+02      1.079     0.8774 0.0000e+00
