* Sea-Bird SBE19plus Data File:
* FileName = C:\data\otf\2007\ctd-07128.hex
* Software Version 1.55
* Temperature SN =  5061
* Conductivity SN =  5061
* System UpLoad Time = Aug 15 2007 17:23:09
* ds
* SeacatPlus V 1.6a  SERIAL NO. 5061    15 Aug 2007  15:31:53
* vbatt = 10.9, vlith =  8.7, ioper =  61.6 ma, ipump =  57.5 ma, 
* iext01 =  95.2 ma
* iext23 =  58.1 ma
* 
* status = not logging
* number of scans to average = 1
* samples = 153039, free = 288466, casts = 154
* mode = profile, minimum cond freq = 3000, pump delay = 60 sec
* autorun = no, ignore magnetic switch = no
* battery type = alkaline, battery cutoff =  7.3 volts
* pressure sensor = strain gauge, range = 870.0
* SBE 38 = no, Gas Tension Device = no
* Ext Volt 0 = yes, Ext Volt 1 = yes, Ext Volt 2 = yes, Ext Volt 3 = yes
* echo commands = yes
* output format = raw HEX
* S>
* 
* SeacatPlus V 1.6a  SERIAL NO. 5061    15 Aug 2007  15:32:18
* temperature:  05-oct-06
*     TA0 = 1.254184e-03
*     TA1 = 2.596730e-04
*     TA2 = 5.165612e-07
*     TA3 = 1.318931e-07
*     TOFFSET = 0.000000e+00
* conductivity:  05-oct-06
*     G = -9.978144e-01
*     H = 1.555200e-01
*     I = -4.839108e-04
*     J = 6.121100e-05
*     CF0 = 2.539936e+03
*     CPCOR = -9.570000e-08
*     CTCOR = 3.250000e-06
*     CSLOPE = 1.000000e+00
* pressure S/N = 2362539, range = 870 psia:  24-aug-06
*     PA0 = 2.171091e-01
*     PA1 = 2.647085e-03
*     PA2 = 1.419397e-11
*     PTCA0 = 5.242437e+05
*     PTCA1 = 7.545345e+00
*     PTCA2 = -1.835354e-01
*     PTCB0 = 2.537125e+01
*     PTCB1 = -1.750000e-03
*     PTCB2 = 0.000000e+00
*     PTEMPA0 = -5.753989e+01
*     PTEMPA1 = 5.235813e+01
*     PTEMPA2 = -4.015521e-02
*     POFFSET = 0.000000e+00
* volt 0: offset = -4.682842e-02, slope = 1.249147e+00
* volt 1: offset = -4.695158e-02, slope = 1.248145e+00
* volt 2: offset = -4.685263e-02, slope = 1.248783e+00
* volt 3: offset = -4.690316e-02, slope = 1.249508e+00
*     EXTFREQSF = 1.000002e+00
* dh
* cast 128 24 Jul 2007 00:53:17 samples 125636 to 126278, avg = 1, stop = mag switch
* S> 
# nquan = 10
# nvalues = 85                          
# units = specified
# name 0 = depSM: Depth [salt water, m]
# name 1 = tv290C: Temperature [ITS-90, deg C]
# name 2 = sal00: Salinity [PSU]
# name 3 = sbeox0Mg/L: Oxygen, SBE 43 [mg/l]
# name 4 = sbeox0PS: Oxygen, SBE 43 [% saturation]
# name 5 = sigma-t00: Density [sigma-t, Kg/m^3 ]
# name 6 = par: PAR/Irradiance, Biospherical/Licor
# name 7 = prdM: Pressure, Strain Gauge [db]
# name 8 = flECO-AFL: Fluorescence, Wetlab ECO-AFL/FL [mg/m^3]
# name 9 = flag: flag
# span 0 =      1.000,     45.000       
# span 1 =     8.5432,     8.6073       
# span 2 =    31.6705,    31.7018       
# span 3 =    8.62393,    9.49838       
# span 4 =   90.55009,   99.69166       
# span 5 =    24.5805,    24.5990       
# span 6 = 1.5411e+00, 1.5546e+00       
# span 7 =      1.114,     45.249       
# span 8 =     1.3289,     1.7724       
# span 9 = 0.0000e+00, 0.0000e+00       
# interval = meters: 1                  
# start_time = Jul 24 2007 00:53:17
# bad_flag = -9.990e-29
# sensor 0 = Frequency 0  temperature, 5061, 05-Oct-06
# sensor 1 = Frequency 1  conductivity, 5061, 05-Oct-06, cpcor = -9.5700e-08
# sensor 2 = Pressure Number
# sensor 3 = Extrnl Volt  0  irradiance (PAR), primary, 4751, 08/10/06
# sensor 4 = Extrnl Volt  1  Oxygen, SBE, primary, 1081, 10/24/06
# sensor 5 = Extrnl Volt  2  WET Labs, ECO_AFL
# sensor 6 = Extrnl Volt  3  userpoly 0, 0627, 10/11/06
# datcnv_date = Oct 15 2007 14:49:52, 5.37e
# datcnv_in = I:\bob d\OTF_GEM\2007\ctd-07128.hex I:\Willette\OTF\CTD\5061.con
# datcnv_skipover = 0
# filter_date = Oct 15 2007 15:02:39, 5.37e
# filter_in = I:\Willette\OTF\CTD\2007\CTD Data\ctd-07128.cnv
# filter_low_pass_tc_A = 1.000
# filter_low_pass_tc_B = 0.150
# filter_low_pass_A_vars = prdM
# filter_low_pass_B_vars =
# loopedit_date = Oct 15 2007 15:06:58, 5.37e
# loopedit_in = I:\Willette\OTF\CTD\2007\CTD Data\ctd-07128.cnv
# loopedit_minVelocity = 0.250                                                                                            
# loopedit_surfaceSoak: minDepth = 5.0, maxDepth = 20, useDeckPress = 1                                                   
# loopedit_excl_bad_scans = yes
# alignctd_date = Oct 15 2007 15:14:23, 5.37e
# alignctd_in = I:\Willette\OTF\CTD\2007\CTD Data\ctd-07128.cnv
# alignctd_adv = tv290C 0.500, sbeox0Mg/L 4.000, sbeox0PS 4.000                                                                                                                                                                      
# binavg_date = Oct 15 2007 15:18:52, 5.37e
# binavg_in = I:\Willette\OTF\CTD\2007\CTD Data\ctd-07128.cnv
# binavg_bintype = meters
# binavg_binsize = 1
# binavg_excl_bad_scans = yes
# binavg_skipover = 0
# binavg_surface_bin = no, min = 0.000, max = 0.000, value = 0.000
# file_type = ascii
*END*
      5.000     8.5476    31.6849    8.76172   91.98231    24.5911 1.5464e+00      5.239     1.6987 0.0000e+00
      6.000     8.5461    31.6846    8.81111   92.50883    24.5915 1.5411e+00      6.110     1.6607 0.0000e+00
      7.000     8.5470    31.6865    8.78359   92.22572    24.5931 1.5522e+00      7.038     1.6078 0.0000e+00
      8.000     8.5526    31.6916    8.68827   91.22704    24.5967 1.5541e+00      8.065     1.5598 0.0000e+00
      9.000     8.5532    31.6864    8.62393   90.55009    24.5919 1.5536e+00      8.944     1.5308 0.0000e+00
     10.000     8.5535    31.6890    8.68190   91.16140    24.5940 1.5540e+00      9.850     1.5181 0.0000e+00
     11.000     8.5594    31.6936    8.77281   92.11204    24.5969 1.5538e+00     11.159     1.5457 0.0000e+00
     12.000     8.5591    31.6896    8.85607   92.99496    24.5936 1.5537e+00     12.135     1.5385 0.0000e+00
     13.000     8.5604    31.6912    8.87125   93.16924    24.5947 1.5534e+00     13.184     1.5874 0.0000e+00
     14.000     8.5590    31.6886    8.88508   93.31690    24.5927 1.5536e+00     14.167     1.5289 0.0000e+00
     15.000     8.5601    31.6890    8.92266   93.71803    24.5932 1.5534e+00     15.095     1.4945 0.0000e+00
     16.000     8.5680    31.6950    8.92182   93.71347    24.5971 1.5530e+00     16.171     1.5789 0.0000e+00
     17.000     8.5696    31.6899    8.92824   93.78119    24.5921 1.5528e+00     17.164     1.5761 0.0000e+00
     18.000     8.5720    31.6937    8.95039   94.01408    24.5951 1.5532e+00     18.137     1.5225 0.0000e+00
     19.000     8.5748    31.6939    8.92142   93.70396    24.5948 1.5528e+00     19.235     1.4847 0.0000e+00
     20.000     8.5750    31.6924    8.97498   94.26627    24.5934 1.5527e+00     20.198     1.4606 0.0000e+00
     21.000     8.5755    31.6942    8.96744   94.19141    24.5948 1.5530e+00     21.242     1.4489 0.0000e+00
     22.000     8.5742    31.6905    8.90892   93.57735    24.5919 1.5527e+00     22.384     1.5567 0.0000e+00
     23.000     8.5725    31.6899    8.96662   94.18504    24.5917 1.5531e+00     23.198     1.4534 0.0000e+00
     24.000     8.5730    31.6922    8.98881   94.41410    24.5936 1.5529e+00     24.156     1.4026 0.0000e+00
     25.000     8.5750    31.6930    8.97045   94.24903    24.5940 1.5528e+00     25.361     1.4604 0.0000e+00
     26.000     8.5751    31.6914    8.97513   94.30695    24.5925 1.5525e+00     26.268     1.4297 0.0000e+00
     27.000     8.5753    31.6925    8.92168   93.74802    24.5934 1.5527e+00     27.129     1.4154 0.0000e+00
     28.000     8.5732    31.6893    8.87652   93.27422    24.5911 1.5526e+00     28.229     1.5452 0.0000e+00
     29.000     8.5841    31.7000    8.88497   93.36288    24.5990 1.5523e+00     29.150     1.4563 0.0000e+00
     30.000     8.5905    31.6966    8.81840   92.66565    24.5945 1.5523e+00     30.236     1.4265 0.0000e+00
     31.000     8.5912    31.6963    8.83137   92.80166    24.5940 1.5523e+00     31.219     1.4530 0.0000e+00
     32.000     8.5914    31.6973    8.81429   92.63107    24.5948 1.5519e+00     32.443     1.5315 0.0000e+00
     33.000     8.5922    31.6967    8.92829   93.83517    24.5941 1.5521e+00     33.342     1.4541 0.0000e+00
     34.000     8.5925    31.6967    9.06663   95.28487    24.5943 1.5520e+00     34.383     1.4391 0.0000e+00
     35.000     8.5952    31.6992    9.16309   96.30033    24.5959 1.5518e+00     35.478     1.4275 0.0000e+00
     36.000     8.5971    31.6989    9.20212   96.71100    24.5954 1.5518e+00     36.395     1.4300 0.0000e+00
     37.000     8.5990    31.6994    9.22628   96.96618    24.5954 1.5519e+00     37.358     1.3733 0.0000e+00
     38.000     8.5969    31.6950    9.24593   97.17151    24.5918 1.5525e+00     38.347     1.3493 0.0000e+00
     39.000     8.5971    31.6985    9.26592   97.38033    24.5950 1.5518e+00     39.374     1.3670 0.0000e+00
     40.000     8.5979    31.6983    9.28281   97.56111    24.5946 1.5521e+00     40.278     1.3386 0.0000e+00
     41.000     8.5982    31.6981    9.29532   97.70405    24.5944 1.5519e+00     41.201     1.3289 0.0000e+00
     42.000     8.5979    31.6975    9.31225   97.88846    24.5939 1.5517e+00     42.340     1.4058 0.0000e+00
     43.000     8.5984    31.6988    9.31378   97.90772    24.5950 1.5520e+00     43.376     1.4647 0.0000e+00
     44.000     8.6045    31.7018    9.31091   97.87723    24.5967 1.5516e+00     44.341     1.5179 0.0000e+00
     45.000     8.6072    31.7005    9.33389   98.11588    24.5949 1.5546e+00     45.249     1.3986 0.0000e+00
     44.000     8.6073    31.6995    9.35388   98.31731    24.5941 1.5515e+00     44.426     1.3756 0.0000e+00
     43.000     8.6059    31.6994    9.36733   98.45376    24.5942 1.5515e+00     43.371     1.5174 0.0000e+00
     42.000     8.6032    31.6972    9.37630   98.54453    24.5928 1.5511e+00     42.404     1.4584 0.0000e+00
     41.000     8.6010    31.6977    9.38821   98.66536    24.5936 1.5514e+00     41.359     1.5257 0.0000e+00
     40.000     8.5997    31.6974    9.38863   98.66852    24.5936 1.5514e+00     40.384     1.4699 0.0000e+00
     39.000     8.5980    31.6969    9.39213   98.70483    24.5934 1.5513e+00     39.387     1.5519 0.0000e+00
     38.000     8.5969    31.6966    9.39794   98.76424    24.5934 1.5514e+00     38.354     1.5307 0.0000e+00
     37.000     8.5969    31.6970    9.40031   98.78663    24.5938 1.5515e+00     37.377     1.4802 0.0000e+00
     36.000     8.5962    31.6973    9.40220   98.80224    24.5941 1.5509e+00     36.357     1.5493 0.0000e+00
     35.000     8.5951    31.6962    9.40532   98.83452    24.5934 1.5512e+00     35.279     1.4359 0.0000e+00
     34.000     8.5937    31.6958    9.41138   98.89180    24.5932 1.5509e+00     34.337     1.4655 0.0000e+00
     33.000     8.5927    31.6958    9.41421   98.92067    24.5933 1.5508e+00     33.362     1.5169 0.0000e+00
     32.000     8.5904    31.6948    9.41712   98.94493    24.5930 1.5509e+00     32.242     1.5626 0.0000e+00
     31.000     8.5902    31.6946    9.41844   98.95429    24.5928 1.5511e+00     31.336     1.6281 0.0000e+00
     30.000     8.5875    31.6935    9.41977   98.96676    24.5923 1.5508e+00     30.209     1.6983 0.0000e+00
     29.000     8.5856    31.6928    9.40559   98.81431    24.5920 1.5506e+00     29.319     1.6333 0.0000e+00
     28.000     8.5853    31.6933    9.39434   98.69353    24.5925 1.5509e+00     28.234     1.6624 0.0000e+00
     27.000     8.5836    31.6914    9.39892   98.72891    24.5912 1.5508e+00     27.221     1.6594 0.0000e+00
     26.000     8.5835    31.6916    9.41631   98.89822    24.5914 1.5506e+00     26.293     1.5548 0.0000e+00
     25.000     8.5789    31.6890    9.43619   99.10483    24.5900 1.5506e+00     25.167     1.6050 0.0000e+00
     24.000     8.5734    31.6864    9.43576   99.10211    24.5886 1.5504e+00     24.269     1.6345 0.0000e+00
     23.000     8.5705    31.6881    9.43801   99.12435    24.5907 1.5506e+00     23.138     1.6087 0.0000e+00
     22.000     8.5719    31.6882    9.43670   99.10908    24.5906 1.5505e+00     22.242     1.5853 0.0000e+00
     21.000     8.5717    31.6883    9.44697   99.21646    24.5907 1.5502e+00     21.062     1.5967 0.0000e+00
     20.000     8.5709    31.6879    9.45471   99.29511    24.5905 1.5503e+00     20.225     1.5322 0.0000e+00
     19.000     8.5708    31.6885    9.45898   99.33977    24.5910 1.5504e+00     19.140     1.6010 0.0000e+00
     18.000     8.5698    31.6875    9.45539   99.29970    24.5902 1.5502e+00     18.191     1.6688 0.0000e+00
     17.000     8.5694    31.6881    9.45050   99.24232    24.5909 1.5503e+00     17.100     1.6335 0.0000e+00
     16.000     8.5689    31.6871    9.44845   99.20876    24.5901 1.5501e+00     16.198     1.5876 0.0000e+00
     15.000     8.5677    31.6871    9.45970   99.32158    24.5903 1.5501e+00     14.953     1.5744 0.0000e+00
     14.000     8.5637    31.6823    9.45616   99.28251    24.5868 1.5502e+00     14.276     1.5706 0.0000e+00
     13.000     8.5592    31.6829    9.46447   99.36664    24.5883 1.5502e+00     13.000     1.6861 0.0000e+00
     12.000     8.5592    31.6824    9.47148   99.44066    24.5879 1.5504e+00     12.158     1.4865 0.0000e+00
     11.000     8.5577    31.6817    9.46815   99.39716    24.5875 1.5518e+00     11.118     1.6886 0.0000e+00
     10.000     8.5578    31.6822    9.46925   99.40176    24.5880 1.5508e+00     10.116     1.5821 0.0000e+00
      9.000     8.5553    31.6803    9.47373   99.44514    24.5867 1.5517e+00      9.037     1.5418 0.0000e+00
      8.000     8.5524    31.6791    9.47527   99.45042    24.5862 1.5519e+00      8.148     1.6585 0.0000e+00
      7.000     8.5504    31.6786    9.48352   99.52819    24.5862 1.5508e+00      7.043     1.7290 0.0000e+00
      6.000     8.5463    31.6743    9.48937   99.59168    24.5832 1.5509e+00      6.016     1.7724 0.0000e+00
      5.000     8.5432    31.6733    9.49441   99.64597    24.5831 1.5507e+00      5.072     1.6458 0.0000e+00
      4.000     8.5439    31.6740    9.49323   99.63505    24.5837 1.5502e+00      3.974     1.6573 0.0000e+00
      3.000     8.5448    31.6718    9.49838   99.69166    24.5819 1.5486e+00      3.077     1.7294 0.0000e+00
      2.000     8.5457    31.6711    9.45537   99.24399    24.5811 1.5520e+00      1.998     1.7698 0.0000e+00
      1.000     8.5468    31.6705    9.35972   98.24604    24.5805 1.5524e+00      1.114     1.7057 0.0000e+00
