* Sea-Bird SBE19plus Data File:
* FileName = C:\data\otf\2007\ctd-07056.hex
* Software Version 1.55
* Temperature SN =  5061
* Conductivity SN =  5061
* System UpLoad Time = Aug 15 2007 16:12:21
* ds
* SeacatPlus V 1.6a  SERIAL NO. 5061    15 Aug 2007  15:31:53
* vbatt = 10.9, vlith =  8.7, ioper =  61.6 ma, ipump =  57.5 ma, 
* iext01 =  95.2 ma
* iext23 =  58.1 ma
* 
* status = not logging
* number of scans to average = 1
* samples = 153039, free = 288466, casts = 154
* mode = profile, minimum cond freq = 3000, pump delay = 60 sec
* autorun = no, ignore magnetic switch = no
* battery type = alkaline, battery cutoff =  7.3 volts
* pressure sensor = strain gauge, range = 870.0
* SBE 38 = no, Gas Tension Device = no
* Ext Volt 0 = yes, Ext Volt 1 = yes, Ext Volt 2 = yes, Ext Volt 3 = yes
* echo commands = yes
* output format = raw HEX
* S>
* 
* SeacatPlus V 1.6a  SERIAL NO. 5061    15 Aug 2007  15:32:18
* temperature:  05-oct-06
*     TA0 = 1.254184e-03
*     TA1 = 2.596730e-04
*     TA2 = 5.165612e-07
*     TA3 = 1.318931e-07
*     TOFFSET = 0.000000e+00
* conductivity:  05-oct-06
*     G = -9.978144e-01
*     H = 1.555200e-01
*     I = -4.839108e-04
*     J = 6.121100e-05
*     CF0 = 2.539936e+03
*     CPCOR = -9.570000e-08
*     CTCOR = 3.250000e-06
*     CSLOPE = 1.000000e+00
* pressure S/N = 2362539, range = 870 psia:  24-aug-06
*     PA0 = 2.171091e-01
*     PA1 = 2.647085e-03
*     PA2 = 1.419397e-11
*     PTCA0 = 5.242437e+05
*     PTCA1 = 7.545345e+00
*     PTCA2 = -1.835354e-01
*     PTCB0 = 2.537125e+01
*     PTCB1 = -1.750000e-03
*     PTCB2 = 0.000000e+00
*     PTEMPA0 = -5.753989e+01
*     PTEMPA1 = 5.235813e+01
*     PTEMPA2 = -4.015521e-02
*     POFFSET = 0.000000e+00
* volt 0: offset = -4.682842e-02, slope = 1.249147e+00
* volt 1: offset = -4.695158e-02, slope = 1.248145e+00
* volt 2: offset = -4.685263e-02, slope = 1.248783e+00
* volt 3: offset = -4.690316e-02, slope = 1.249508e+00
*     EXTFREQSF = 1.000002e+00
* dh
* cast  56 11 Jul 2007 14:39:09 samples 44489 to 44850, avg = 4, stop = mag switch
* S> 
# nquan = 10
# nvalues = 158                         
# units = specified
# name 0 = depSM: Depth [salt water, m]
# name 1 = tv290C: Temperature [ITS-90, deg C]
# name 2 = sal00: Salinity [PSU]
# name 3 = sbeox0Mg/L: Oxygen, SBE 43 [mg/l]
# name 4 = sbeox0PS: Oxygen, SBE 43 [% saturation]
# name 5 = sigma-t00: Density [sigma-t, Kg/m^3 ]
# name 6 = par: PAR/Irradiance, Biospherical/Licor
# name 7 = prdM: Pressure, Strain Gauge [db]
# name 8 = flECO-AFL: Fluorescence, Wetlab ECO-AFL/FL [mg/m^3]
# name 9 = flag: flag
# span 0 =      1.000,     81.000       
# span 1 =     8.2344,     9.7117       
# span 2 =    30.4099,    31.5184       
# span 3 =    8.45044,   11.26627       
# span 4 =   89.22335,  102.99739       
# span 5 =    23.4251,    24.5066       
# span 6 = 1.5460e+00, 5.5957e+02       
# span 7 =      1.491,     80.930       
# span 8 =     0.2226,     0.6766       
# span 9 = 0.0000e+00, 0.0000e+00       
# interval = meters: 1                  
# start_time = Jul 11 2007 14:39:09
# bad_flag = -9.990e-29
# sensor 0 = Frequency 0  temperature, 5061, 05-Oct-06
# sensor 1 = Frequency 1  conductivity, 5061, 05-Oct-06, cpcor = -9.5700e-08
# sensor 2 = Pressure Number
# sensor 3 = Extrnl Volt  0  irradiance (PAR), primary, 4751, 08/10/06
# sensor 4 = Extrnl Volt  1  Oxygen, SBE, primary, 1081, 10/24/06
# sensor 5 = Extrnl Volt  2  WET Labs, ECO_AFL
# sensor 6 = Extrnl Volt  3  userpoly 0, 0627, 10/11/06
# datcnv_date = Oct 15 2007 14:49:45, 5.37e
# datcnv_in = I:\bob d\OTF_GEM\2007\ctd-07056.hex I:\Willette\OTF\CTD\5061.con
# datcnv_skipover = 0
# filter_date = Oct 15 2007 15:02:25, 5.37e
# filter_in = I:\Willette\OTF\CTD\2007\CTD Data\ctd-07056.cnv
# filter_low_pass_tc_A = 1.000
# filter_low_pass_tc_B = 0.150
# filter_low_pass_A_vars = prdM
# filter_low_pass_B_vars =
# loopedit_date = Oct 15 2007 15:06:47, 5.37e
# loopedit_in = I:\Willette\OTF\CTD\2007\CTD Data\ctd-07056.cnv
# loopedit_minVelocity = 0.250                                                                                            
# loopedit_surfaceSoak: minDepth = 5.0, maxDepth = 20, useDeckPress = 1                                                   
# loopedit_excl_bad_scans = yes
# alignctd_date = Oct 15 2007 15:14:15, 5.37e
# alignctd_in = I:\Willette\OTF\CTD\2007\CTD Data\ctd-07056.cnv
# alignctd_adv = tv290C 0.500, sbeox0Mg/L 4.000, sbeox0PS 4.000                                                                                                                                                                      
# binavg_date = Oct 15 2007 15:18:44, 5.37e
# binavg_in = I:\Willette\OTF\CTD\2007\CTD Data\ctd-07056.cnv
# binavg_bintype = meters
# binavg_binsize = 1
# binavg_excl_bad_scans = yes
# binavg_skipover = 0
# binavg_surface_bin = no, min = 0.000, max = 0.000, value = 0.000
# file_type = ascii
*END*
      4.000     9.3714    30.5144    8.45044   89.22335    23.4900 5.5957e+02      4.676     0.2813 0.0000e+00
      5.000     9.1552    30.5444    8.65353   91.33167    23.5726 4.2076e+02      5.741     0.3495 0.0000e+00
      6.000     9.1074    30.6301    8.70723   91.61952    23.6691 3.3074e+02      6.390     0.3692 0.0000e+00
      7.000     9.0882    30.6788    8.99797   94.63993    23.7149 2.5070e+02      7.133     0.3826 0.0000e+00
      8.000     9.1115    30.7061    9.18656   96.49419    23.7433 1.9078e+02      7.899     0.4538 0.0000e+00
      9.000     9.0582    30.8374    9.34814   98.00733    23.8447 1.4035e+02      9.031     0.5494 0.0000e+00
     10.000     9.0300    30.7227    9.44485   98.93814    23.7618 1.0853e+02     10.253     0.6235 0.0000e+00
     11.000     9.0412    30.7987    9.49105   99.38378    23.8253 8.5845e+01     11.354     0.6099 0.0000e+00
     12.000     9.1251    30.8370    9.52605   99.74486    23.8539 6.5998e+01     12.522     0.6142 0.0000e+00
     13.000     8.9851    30.5977    9.57075  100.20234    23.6259 5.0772e+01     14.148     0.5852 0.0000e+00
     14.000     8.9703    30.8678    9.57607  100.26596    23.8836 3.9816e+01     14.800     0.5557 0.0000e+00
     15.000     8.8381    30.7511    9.58939  100.39436    23.7855 3.2837e+01     16.145     0.5803 0.0000e+00
     16.000     8.8506    30.8410    9.60144  100.49804    23.8764 2.6694e+01     16.607     0.5500 0.0000e+00
     17.000     8.7431    30.8901    9.61860  100.65971    23.9236 2.0396e+01     17.932     0.5480 0.0000e+00
     18.000     8.6942    30.8878    9.62490  100.70767    23.9236 1.7382e+01     18.709     0.5626 0.0000e+00
     19.000     8.6783    30.9336    9.62742  100.70314    23.9692 1.4295e+01     19.382     0.5487 0.0000e+00
     20.000     8.6564    30.9856    9.63664  100.77631    24.0190 1.1581e+01     20.331     0.5251 0.0000e+00
     21.000     8.6351    31.0156    9.64499  100.84888    24.0480 9.5645e+00     21.327     0.5130 0.0000e+00
     22.000     8.6219    31.0308    9.65056  100.89108    24.0628 8.0301e+00     22.174     0.5006 0.0000e+00
     23.000     8.6133    31.0512    9.66176  101.00056    24.0818 6.7539e+00     23.133     0.4815 0.0000e+00
     24.000     8.6109    31.0670    9.67155  101.08701    24.0966 5.7846e+00     24.097     0.4995 0.0000e+00
     25.000     8.6074    31.0752    9.67223  101.07057    24.1043 5.0042e+00     24.991     0.4913 0.0000e+00
     26.000     8.6045    31.0794    9.67348  101.06056    24.1080 4.3452e+00     25.931     0.4931 0.0000e+00
     27.000     8.6044    31.0864    9.67171  101.01401    24.1141 3.8041e+00     27.040     0.4998 0.0000e+00
     28.000     8.6049    31.0896    9.67279  100.99812    24.1170 3.3890e+00     27.967     0.4849 0.0000e+00
     29.000     8.5993    31.0896    9.68373  101.08525    24.1170 3.0260e+00     28.998     0.4866 0.0000e+00
     30.000     8.5785    31.0929    9.69707  101.20500    24.1194 2.7374e+00     30.343     0.5028 0.0000e+00
     31.000     8.5732    31.1038    9.69058  101.12740    24.1299 2.5399e+00     31.190     0.4924 0.0000e+00
     32.000     8.5463    31.1150    9.70308  101.20228    24.1407 2.3491e+00     32.477     0.4773 0.0000e+00
     33.000     8.5308    31.1257    9.71243  101.27188    24.1506 2.2053e+00     33.369     0.4658 0.0000e+00
     34.000     8.5177    31.1567    9.72658  101.40603    24.1793 2.0771e+00     34.563     0.4731 0.0000e+00
     35.000     8.5070    31.1683    9.72547  101.38936    24.1900 1.9848e+00     35.375     0.4568 0.0000e+00
     36.000     8.5045    31.1803    9.72874  101.40234    24.2010 1.8985e+00     36.413     0.4683 0.0000e+00
     37.000     8.4874    31.1934    9.73692  101.47190    24.2132 1.8337e+00     37.483     0.4522 0.0000e+00
     38.000     8.4695    31.1918    9.73580  101.45590    24.2119 1.7827e+00     38.364     0.4400 0.0000e+00
     39.000     8.4566    31.2128    9.74656  101.54132    24.2308 1.7389e+00     39.314     0.4730 0.0000e+00
     40.000     8.4396    31.2286    9.75338  101.58844    24.2456 1.7087e+00     40.244     0.4680 0.0000e+00
     41.000     8.4227    31.2465    9.74894  101.53461    24.2622 1.6799e+00     41.268     0.4664 0.0000e+00
     42.000     8.4119    31.2637    9.74350  101.46322    24.2782 1.6565e+00     42.266     0.4749 0.0000e+00
     43.000     8.4072    31.2792    9.74496  101.46676    24.2926 1.6367e+00     43.210     0.4633 0.0000e+00
     44.000     8.3910    31.2889    9.74596  101.47221    24.3018 1.6199e+00     44.326     0.4650 0.0000e+00
     45.000     8.3567    31.2935    9.75550  101.57119    24.3059 1.6061e+00     45.334     0.5196 0.0000e+00
     46.000     8.3460    31.3211    9.76159  101.63459    24.3316 1.5962e+00     46.393     0.4649 0.0000e+00
     47.000     8.3405    31.3446    9.75938  101.61375    24.3536 1.5871e+00     47.461     0.4933 0.0000e+00
     48.000     8.3313    31.3541    9.75705  101.58843    24.3623 1.5802e+00     48.370     0.4665 0.0000e+00
     49.000     8.3206    31.3589    9.75854  101.60411    24.3669 1.5741e+00     49.384     0.4853 0.0000e+00
     50.000     8.3147    31.3691    9.75927  101.61327    24.3764 1.5696e+00     50.320     0.4692 0.0000e+00
     51.000     8.2938    31.3793    9.75834  101.60030    24.3857 1.5653e+00     51.288     0.4724 0.0000e+00
     52.000     8.2823    31.4002    9.76197  101.63793    24.4042 1.5623e+00     52.306     0.4755 0.0000e+00
     53.000     8.2693    31.4213    9.76329  101.64907    24.4236 1.5594e+00     53.296     0.4779 0.0000e+00
     54.000     8.2526    31.4305    9.76159  101.63062    24.4317 1.5574e+00     54.292     0.4983 0.0000e+00
     55.000     8.2445    31.4691    9.76139  101.63064    24.4644 1.5550e+00     55.289     0.4912 0.0000e+00
     56.000     8.2451    31.4862    9.76229  101.64006    24.4796 1.5533e+00     56.138     0.5077 0.0000e+00
     57.000     8.2449    31.4907    9.76586  101.67605    24.4837 1.5520e+00     57.010     0.4948 0.0000e+00
     58.000     8.2458    31.4917    9.76659  101.68311    24.4847 1.5506e+00     58.156     0.5022 0.0000e+00
     59.000     8.2460    31.4909    9.77709  101.79035    24.4839 1.5498e+00     59.515     0.5343 0.0000e+00
     60.000     8.2459    31.4899    9.77081  101.72566    24.4831 1.5492e+00     60.586     0.5051 0.0000e+00
     61.000     8.2436    31.4894    9.78035  101.82352    24.4825 1.5486e+00     62.018     0.4923 0.0000e+00
     62.000     8.2425    31.4914    9.77584  101.77732    24.4845 1.5482e+00     62.511     0.4861 0.0000e+00
     63.000     8.2414    31.4984    9.77386  101.75579    24.4902 1.5481e+00     63.672     0.4915 0.0000e+00
     64.000     8.2429    31.4974    9.77275  101.74561    24.4896 1.5472e+00     64.352     0.5271 0.0000e+00
     65.000     8.2416    31.4970    9.77513  101.76811    24.4891 1.5468e+00     65.748     0.5249 0.0000e+00
     66.000     8.2410    31.4980    9.77122  101.73017    24.4901 1.5467e+00     66.714     0.5255 0.0000e+00
     67.000     8.2391    31.5003    9.77330  101.75282    24.4919 1.5468e+00     67.858     0.5190 0.0000e+00
     68.000     8.2393    31.5041    9.77669  101.79010    24.4952 1.5467e+00     68.674     0.5247 0.0000e+00
     69.000     8.2385    31.5049    9.77884  101.81099    24.4958 1.5464e+00     69.753     0.5259 0.0000e+00
     70.000     8.2382    31.5060    9.77678  101.78987    24.4967 1.5466e+00     70.640     0.5250 0.0000e+00
     71.000     8.2374    31.5068    9.77699  101.79256    24.4974 1.5464e+00     71.629     0.5254 0.0000e+00
     72.000     8.2365    31.5090    9.77608  101.78321    24.4992 1.5465e+00     72.622     0.5185 0.0000e+00
     73.000     8.2363    31.5123    9.77487  101.77047    24.5020 1.5460e+00     73.544     0.5381 0.0000e+00
     74.000     8.2365    31.5143    9.76878  101.71037    24.5035 1.5463e+00     74.497     0.5009 0.0000e+00
     75.000     8.2367    31.5114    9.76298  101.65157    24.5013 1.5466e+00     75.394     0.5404 0.0000e+00
     76.000     8.2367    31.5139    9.76648  101.68854    24.5033 1.5465e+00     76.096     0.5295 0.0000e+00
     77.000     8.2369    31.5152    9.77052  101.73181    24.5042 1.5466e+00     77.174     0.5315 0.0000e+00
     78.000     8.2365    31.5164    9.77392  101.76740    24.5052 1.5466e+00     78.701     0.5403 0.0000e+00
     79.000     8.2366    31.5182    9.77205  101.74727    24.5066 1.5463e+00     79.454     0.5577 0.0000e+00
     80.000     8.2368    31.5178    9.76828  101.70754    24.5063 1.5461e+00     80.245     0.5739 0.0000e+00
     81.000     8.2389    31.5181    9.76807  101.70577    24.5063 1.5462e+00     80.930     0.5576 0.0000e+00
     80.000     8.2390    31.5182    9.77104  101.73306    24.5062 1.5463e+00     80.550     0.5938 0.0000e+00
     79.000     8.2395    31.5184    9.76231  101.63420    24.5064 1.5463e+00     79.107     0.5788 0.0000e+00
     78.000     8.2396    31.5182    9.76079  101.61826    24.5061 1.5466e+00     78.075     0.6097 0.0000e+00
     77.000     8.2388    31.5177    9.75797  101.58692    24.5058 1.5462e+00     77.319     0.6766 0.0000e+00
     76.000     8.2386    31.5176    9.76215  101.63057    24.5057 1.5463e+00     76.306     0.6222 0.0000e+00
     75.000     8.2377    31.5184    9.76174  101.62592    24.5064 1.5465e+00     75.624     0.6590 0.0000e+00
     74.000     8.2374    31.5172    9.76239  101.63336    24.5056 1.5463e+00     74.528     0.6183 0.0000e+00
     73.000     8.2365    31.5142    9.76703  101.68006    24.5034 1.5465e+00     73.639     0.6294 0.0000e+00
     72.000     8.2354    31.5126    9.77065  101.71586    24.5022 1.5462e+00     72.771     0.5763 0.0000e+00
     71.000     8.2357    31.5127    9.77396  101.75338    24.5024 1.5464e+00     71.517     0.5549 0.0000e+00
     70.000     8.2354    31.5147    9.76842  101.69831    24.5040 1.5464e+00     70.730     0.5799 0.0000e+00
     69.000     8.2359    31.5157    9.76615  101.67677    24.5049 1.5465e+00     69.578     0.5914 0.0000e+00
     68.000     8.2359    31.5123    9.76458  101.65977    24.5021 1.5466e+00     68.730     0.6759 0.0000e+00
     67.000     8.2355    31.5092    9.76945  101.71372    24.4996 1.5466e+00     67.674     0.5920 0.0000e+00
     66.000     8.2351    31.5094    9.76292  101.64942    24.4998 1.5472e+00     66.679     0.5501 0.0000e+00
     65.000     8.2344    31.5111    9.76256  101.65121    24.5013 1.5469e+00     65.800     0.5736 0.0000e+00
     64.000     8.2350    31.5132    9.76753  101.70762    24.5030 1.5470e+00     64.702     0.5552 0.0000e+00
     63.000     8.2388    31.5091    9.77119  101.75170    24.4997 1.5475e+00     63.687     0.5575 0.0000e+00
     62.000     8.2430    31.4951    9.77207  101.75522    24.4881 1.5482e+00     62.560     0.4926 0.0000e+00
     61.000     8.2436    31.4888    9.77214  101.75638    24.4828 1.5485e+00     61.689     0.5511 0.0000e+00
     60.000     8.2451    31.4892    9.77062  101.73082    24.4829 1.5490e+00     60.663     0.6215 0.0000e+00
     59.000     8.2484    31.4826    9.77864  101.81993    24.4775 1.5496e+00     59.670     0.5054 0.0000e+00
     58.000     8.2536    31.4762    9.78045  101.85049    24.4719 1.5506e+00     58.564     0.5119 0.0000e+00
     57.000     8.2569    31.4686    9.77980  101.86974    24.4653 1.5517e+00     57.662     0.5076 0.0000e+00
     56.000     8.2628    31.4624    9.77971  101.91480    24.4599 1.5530e+00     56.659     0.4941 0.0000e+00
     55.000     8.2628    31.4518    9.78484  101.99680    24.4507 1.5543e+00     55.640     0.5007 0.0000e+00
     54.000     8.2574    31.4533    9.78278  101.99845    24.4519 1.5560e+00     54.337     0.4799 0.0000e+00
     53.000     8.2529    31.4612    9.77634  101.93501    24.4587 1.5584e+00     53.672     0.5132 0.0000e+00
     52.000     8.2597    31.4611    9.75886  101.76262    24.4591 1.5615e+00     52.501     0.5146 0.0000e+00
     51.000     8.2753    31.4507    9.76872  101.88117    24.4502 1.5641e+00     51.659     0.4862 0.0000e+00
     50.000     8.3073    31.4153    9.76658  101.86668    24.4195 1.5679e+00     50.538     0.5022 0.0000e+00
     49.000     8.3321    31.3782    9.76428  101.87235    24.3860 1.5729e+00     49.632     0.5167 0.0000e+00
     48.000     8.3471    31.3490    9.76248  101.88246    24.3591 1.5788e+00     48.460     0.4944 0.0000e+00
     47.000     8.3543    31.3389    9.75032  101.77273    24.3497 1.5857e+00     47.388     0.4919 0.0000e+00
     46.000     8.3626    31.3331    9.74017  101.70353    24.3442 1.5944e+00     46.459     0.4746 0.0000e+00
     45.000     8.3693    31.3242    9.74594  101.77496    24.3359 1.6045e+00     45.488     0.4990 0.0000e+00
     44.000     8.3829    31.3199    9.75344  101.86399    24.3318 1.6178e+00     44.410     0.4599 0.0000e+00
     43.000     8.4039    31.3012    9.74554  101.80860    24.3143 1.6327e+00     43.428     0.4906 0.0000e+00
     42.000     8.4117    31.2881    9.74964  101.88701    24.3020 1.6513e+00     42.484     0.4687 0.0000e+00
     41.000     8.4355    31.2740    9.75154  101.92744    24.2892 1.6731e+00     41.421     0.4623 0.0000e+00
     40.000     8.4462    31.2486    9.75277  101.95956    24.2655 1.7008e+00     40.422     0.4677 0.0000e+00
     39.000     8.4520    31.2432    9.74608  101.90732    24.2604 1.7342e+00     39.383     0.4679 0.0000e+00
     38.000     8.4731    31.2331    9.74101  101.87429    24.2511 1.7765e+00     38.381     0.4654 0.0000e+00
     37.000     8.4936    31.2081    9.74577  101.96214    24.2279 1.8248e+00     37.327     0.4691 0.0000e+00
     36.000     8.5059    31.1916    9.74297  101.95930    24.2126 1.8881e+00     36.291     0.4722 0.0000e+00
     35.000     8.5168    31.1796    9.73854  101.92336    24.2016 1.9612e+00     35.383     0.4787 0.0000e+00
     34.000     8.5274    31.1657    9.73654  101.90904    24.1888 2.0533e+00     34.255     0.4695 0.0000e+00
     33.000     8.5398    31.1583    9.74255  101.98282    24.1819 2.1704e+00     33.191     0.4901 0.0000e+00
     32.000     8.5634    31.1408    9.74481  102.02685    24.1662 2.3043e+00     32.362     0.5157 0.0000e+00
     31.000     8.5785    31.1131    9.73560  101.94586    24.1407 2.4744e+00     31.233     0.4912 0.0000e+00
     30.000     8.5855    31.0980    9.73577  101.96048    24.1271 2.7109e+00     30.228     0.4939 0.0000e+00
     29.000     8.5886    31.0919    9.73996  102.05177    24.1215 2.9617e+00     29.223     0.4977 0.0000e+00
     28.000     8.5933    31.0891    9.74096  102.15936    24.1188 3.2505e+00     28.283     0.5086 0.0000e+00
     27.000     8.6059    31.0810    9.72815  102.13838    24.1114 3.6791e+00     27.154     0.5434 0.0000e+00
     26.000     8.6149    31.0693    9.72091  102.11721    24.1006 4.1907e+00     26.173     0.4917 0.0000e+00
     25.000     8.6203    31.0609    9.71349  102.09716    24.0929 4.7779e+00     25.222     0.5236 0.0000e+00
     24.000     8.6285    31.0553    9.69976  102.00678    24.0876 5.4705e+00     24.116     0.4772 0.0000e+00
     23.000     8.6573    31.0448    9.69141  101.94390    24.0777 6.4313e+00     23.198     0.5203 0.0000e+00
     22.000     8.7179    31.0181    9.68892  101.94711    24.0524 7.6336e+00     22.135     0.5284 0.0000e+00
     21.000     8.7721    30.9650    9.68068  101.88576    24.0018 9.1023e+00     21.125     0.5347 0.0000e+00
     20.000     8.7984    30.9240    9.68120  101.92884    23.9624 1.0932e+01     20.185     0.5405 0.0000e+00
     19.000     8.8280    30.8998    9.69461  102.09211    23.9389 1.3224e+01     19.081     0.6156 0.0000e+00
     18.000     8.8545    30.8795    9.69382  102.12224    23.9192 1.6220e+01     18.150     0.5613 0.0000e+00
     17.000     8.8713    30.8594    9.69624  102.24352    23.8995 1.9887e+01     17.107     0.5691 0.0000e+00
     16.000     8.8864    30.8491    9.69653  102.23235    23.8888 2.4488e+01     16.069     0.5678 0.0000e+00
     15.000     8.8972    30.8414    9.68590  102.14198    23.8808 3.0069e+01     15.123     0.5463 0.0000e+00
     14.000     8.9107    30.8353    9.68056  102.21917    23.8742 3.7216e+01     14.056     0.5375 0.0000e+00
     13.000     8.9322    30.8306    9.67615  102.29462    23.8686 4.5852e+01     13.051     0.5742 0.0000e+00
     12.000     8.9417    30.8137    9.67234  102.42941    23.8525 5.7431e+01     12.112     0.5785 0.0000e+00
     11.000     8.9799    30.7783    9.66546  102.73193    23.8229 7.2824e+01     10.979     0.5659 0.0000e+00
     10.000     9.0258    30.7520    9.65936  102.95377    23.7971 9.1668e+01      9.997     0.5983 0.0000e+00
      9.000     9.0296    30.7101    9.64930  102.99739    23.7567 1.1277e+02      9.083     0.6248 0.0000e+00
      8.000     9.0324    30.6770    9.63638  102.90732    23.7301 1.4558e+02      8.057     0.5989 0.0000e+00
      7.000     9.0869    30.6556    9.62703  102.92812    23.7135 1.8206e+02      7.100     0.5943 0.0000e+00
      6.000     9.1502    30.6171    9.62238  102.95752    23.6761 2.2273e+02      6.145     0.5888 0.0000e+00
      5.000     9.2017    30.5762    9.60678  102.81789    23.6341 2.6008e+02      5.158     0.5654 0.0000e+00
      4.000     9.2887    30.5544    9.41596  100.74437    23.6099 2.7861e+02      4.356     0.4917 0.0000e+00
      3.000     9.4614    30.5360    9.82301   99.82580    23.5820 2.7973e+02      3.459     0.3763 0.0000e+00
      2.000     9.5839    30.4862   10.37567  100.20652    23.5198 2.4462e+02      2.749     0.2943 0.0000e+00
      1.000     9.7117    30.4099   11.26627  100.71306    23.4251 3.2160e+02      1.491     0.2226 0.0000e+00
