* Sea-Bird SBE19plus Data File:
* FileName = C:\data\otf\2007\ctd-07145.hex
* Software Version 1.55
* Temperature SN =  5061
* Conductivity SN =  5061
* System UpLoad Time = Aug 15 2007 17:38:09
* ds
* SeacatPlus V 1.6a  SERIAL NO. 5061    15 Aug 2007  15:31:53
* vbatt = 10.9, vlith =  8.7, ioper =  61.6 ma, ipump =  57.5 ma, 
* iext01 =  95.2 ma
* iext23 =  58.1 ma
* 
* status = not logging
* number of scans to average = 1
* samples = 153039, free = 288466, casts = 154
* mode = profile, minimum cond freq = 3000, pump delay = 60 sec
* autorun = no, ignore magnetic switch = no
* battery type = alkaline, battery cutoff =  7.3 volts
* pressure sensor = strain gauge, range = 870.0
* SBE 38 = no, Gas Tension Device = no
* Ext Volt 0 = yes, Ext Volt 1 = yes, Ext Volt 2 = yes, Ext Volt 3 = yes
* echo commands = yes
* output format = raw HEX
* S>
* 
* SeacatPlus V 1.6a  SERIAL NO. 5061    15 Aug 2007  15:32:18
* temperature:  05-oct-06
*     TA0 = 1.254184e-03
*     TA1 = 2.596730e-04
*     TA2 = 5.165612e-07
*     TA3 = 1.318931e-07
*     TOFFSET = 0.000000e+00
* conductivity:  05-oct-06
*     G = -9.978144e-01
*     H = 1.555200e-01
*     I = -4.839108e-04
*     J = 6.121100e-05
*     CF0 = 2.539936e+03
*     CPCOR = -9.570000e-08
*     CTCOR = 3.250000e-06
*     CSLOPE = 1.000000e+00
* pressure S/N = 2362539, range = 870 psia:  24-aug-06
*     PA0 = 2.171091e-01
*     PA1 = 2.647085e-03
*     PA2 = 1.419397e-11
*     PTCA0 = 5.242437e+05
*     PTCA1 = 7.545345e+00
*     PTCA2 = -1.835354e-01
*     PTCB0 = 2.537125e+01
*     PTCB1 = -1.750000e-03
*     PTCB2 = 0.000000e+00
*     PTEMPA0 = -5.753989e+01
*     PTEMPA1 = 5.235813e+01
*     PTEMPA2 = -4.015521e-02
*     POFFSET = 0.000000e+00
* volt 0: offset = -4.682842e-02, slope = 1.249147e+00
* volt 1: offset = -4.695158e-02, slope = 1.248145e+00
* volt 2: offset = -4.685263e-02, slope = 1.248783e+00
* volt 3: offset = -4.690316e-02, slope = 1.249508e+00
*     EXTFREQSF = 1.000002e+00
* dh
* cast 145 28 Jul 2007 15:23:23 samples 142366 to 143736, avg = 1, stop = mag switch
* S> 
# nquan = 10
# nvalues = 159                         
# units = specified
# name 0 = depSM: Depth [salt water, m]
# name 1 = tv290C: Temperature [ITS-90, deg C]
# name 2 = sal00: Salinity [PSU]
# name 3 = sbeox0Mg/L: Oxygen, SBE 43 [mg/l]
# name 4 = sbeox0PS: Oxygen, SBE 43 [% saturation]
# name 5 = sigma-t00: Density [sigma-t, Kg/m^3 ]
# name 6 = par: PAR/Irradiance, Biospherical/Licor
# name 7 = prdM: Pressure, Strain Gauge [db]
# name 8 = flECO-AFL: Fluorescence, Wetlab ECO-AFL/FL [mg/m^3]
# name 9 = flag: flag
# span 0 =      1.000,     82.000       
# span 1 =     8.3667,    11.2976       
# span 2 =    28.3214,    31.6558       
# span 3 =    8.58485,    9.35706       
# span 4 =   92.06960,  102.48177       
# span 5 =    21.5836,    24.5951       
# span 6 = 1.5446e+00, 3.2966e+02       
# span 7 =      1.082,     82.411       
# span 8 =     0.6763,     1.3511       
# span 9 = 0.0000e+00, 0.0000e+00       
# interval = meters: 1                  
# start_time = Jul 28 2007 15:23:23
# bad_flag = -9.990e-29
# sensor 0 = Frequency 0  temperature, 5061, 05-Oct-06
# sensor 1 = Frequency 1  conductivity, 5061, 05-Oct-06, cpcor = -9.5700e-08
# sensor 2 = Pressure Number
# sensor 3 = Extrnl Volt  0  irradiance (PAR), primary, 4751, 08/10/06
# sensor 4 = Extrnl Volt  1  Oxygen, SBE, primary, 1081, 10/24/06
# sensor 5 = Extrnl Volt  2  WET Labs, ECO_AFL
# sensor 6 = Extrnl Volt  3  userpoly 0, 0627, 10/11/06
# datcnv_date = Oct 15 2007 14:49:53, 5.37e
# datcnv_in = I:\bob d\OTF_GEM\2007\ctd-07145.hex I:\Willette\OTF\CTD\5061.con
# datcnv_skipover = 0
# filter_date = Oct 15 2007 15:02:43, 5.37e
# filter_in = I:\Willette\OTF\CTD\2007\CTD Data\ctd-07145.cnv
# filter_low_pass_tc_A = 1.000
# filter_low_pass_tc_B = 0.150
# filter_low_pass_A_vars = prdM
# filter_low_pass_B_vars =
# loopedit_date = Oct 15 2007 15:07:00, 5.37e
# loopedit_in = I:\Willette\OTF\CTD\2007\CTD Data\ctd-07145.cnv
# loopedit_minVelocity = 0.250                                                                                            
# loopedit_surfaceSoak: minDepth = 5.0, maxDepth = 20, useDeckPress = 1                                                   
# loopedit_excl_bad_scans = yes
# alignctd_date = Oct 15 2007 15:14:25, 5.37e
# alignctd_in = I:\Willette\OTF\CTD\2007\CTD Data\ctd-07145.cnv
# alignctd_adv = tv290C 0.500, sbeox0Mg/L 4.000, sbeox0PS 4.000                                                                                                                                                                      
# binavg_date = Oct 15 2007 15:18:53, 5.37e
# binavg_in = I:\Willette\OTF\CTD\2007\CTD Data\ctd-07145.cnv
# binavg_bintype = meters
# binavg_binsize = 1
# binavg_excl_bad_scans = yes
# binavg_skipover = 0
# binavg_surface_bin = no, min = 0.000, max = 0.000, value = 0.000
# file_type = ascii
*END*
      5.000     9.9982    29.8987    8.58485   92.06960    22.9716 3.2966e+02      5.200     0.9611 0.0000e+00
      6.000     9.9967    29.9196    8.69150   93.22955    22.9887 2.7021e+02      6.076     1.0180 0.0000e+00
      7.000     9.9985    29.9287    8.77710   94.16995    22.9955 2.1294e+02      7.093     1.1320 0.0000e+00
      8.000    10.0015    29.9350    8.84153   94.92203    23.0000 1.7146e+02      8.079     1.2164 0.0000e+00
      9.000    10.0060    29.9471    8.90129   95.43455    23.0088 1.3359e+02      9.100     1.2810 0.0000e+00
     10.000    10.0016    29.9738    8.92734   95.51349    23.0293 1.0545e+02     10.179     1.2958 0.0000e+00
     11.000    10.0110    30.0543    8.95637   95.79810    23.0928 8.6519e+01     11.076     1.2866 0.0000e+00
     12.000     9.9330    30.1029    8.99231   96.04688    23.1333 6.9160e+01     12.101     1.1992 0.0000e+00
     13.000     9.8057    30.2292    9.02037   96.20291    23.2558 5.6071e+01     13.212     1.1605 0.0000e+00
     14.000     9.7872    30.2616    9.04183   96.27907    23.2875 4.7171e+01     14.101     1.1882 0.0000e+00
     15.000     9.7109    30.3030    9.05468   96.18359    23.3267 3.8910e+01     15.136     1.1873 0.0000e+00
     16.000     9.6339    30.3788    9.06198   96.18614    23.3990 3.2097e+01     16.092     1.1693 0.0000e+00
     17.000     9.5099    30.4701    9.08302   96.35969    23.4858 2.6158e+01     17.199     1.1771 0.0000e+00
     18.000     9.3500    30.6163    9.10104   96.44822    23.6250 2.2303e+01     18.289     1.1552 0.0000e+00
     19.000     9.3251    30.6733    9.10947   96.46143    23.6799 1.9049e+01     19.039     1.1482 0.0000e+00
     20.000     9.2943    30.6992    9.11624   96.44716    23.7049 1.5699e+01     20.210     1.1443 0.0000e+00
     21.000     9.2322    30.7494    9.12998   96.55461    23.7525 1.3464e+01     21.243     1.1354 0.0000e+00
     22.000     9.1687    30.8064    9.13758   96.57837    23.8054 1.1479e+01     22.133     1.1175 0.0000e+00
     23.000     9.1183    30.8793    9.15206   96.63440    23.8736 1.0067e+01     23.255     1.0953 0.0000e+00
     24.000     9.0950    30.9014    9.16204   96.69449    23.8941 8.5561e+00     24.231     1.0775 0.0000e+00
     25.000     9.0456    30.9475    9.17229   96.75237    23.9360 7.3055e+00     25.325     1.0169 0.0000e+00
     26.000     9.0004    31.0000    9.17944   96.81138    23.9842 6.4319e+00     26.161     1.0317 0.0000e+00
     27.000     8.9636    31.0488    9.18621   96.84143    24.0296 5.5651e+00     27.275     0.9824 0.0000e+00
     28.000     8.9350    31.0776    9.19593   96.89614    24.0563 4.9101e+00     28.230     0.9827 0.0000e+00
     29.000     8.9147    31.1020    9.20072   96.91555    24.0795 4.3598e+00     29.450     0.9532 0.0000e+00
     30.000     8.8932    31.1182    9.20527   96.94911    24.0944 3.9710e+00     30.331     0.9337 0.0000e+00
     31.000     8.8712    31.1367    9.21046   96.98971    24.1119 3.5968e+00     31.127     0.9242 0.0000e+00
     32.000     8.8490    31.1673    9.22046   97.05485    24.1407 3.2219e+00     32.364     0.9399 0.0000e+00
     33.000     8.8383    31.1762    9.22290   97.00476    24.1492 2.9697e+00     33.394     1.0901 0.0000e+00
     34.000     8.8268    31.1854    9.22287   96.94223    24.1578 2.7527e+00     34.329     1.0991 0.0000e+00
     35.000     8.8104    31.2002    9.22986   96.94327    24.1713 2.5608e+00     35.236     1.1118 0.0000e+00
     36.000     8.7702    31.2313    9.23840   97.01072    24.2002 2.3924e+00     36.430     1.1415 0.0000e+00
     37.000     8.7164    31.2872    9.24176   97.03345    24.2519 2.2662e+00     37.359     1.1036 0.0000e+00
     38.000     8.6688    31.3345    9.24661   97.08599    24.2957 2.1509e+00     38.298     1.1112 0.0000e+00
     39.000     8.6550    31.3659    9.24736   97.07417    24.3254 2.0495e+00     39.384     1.1060 0.0000e+00
     40.000     8.6461    31.3752    9.25125   97.09715    24.3340 1.9708e+00     40.381     1.0888 0.0000e+00
     41.000     8.6469    31.3778    9.25357   97.10402    24.3366 1.9008e+00     41.408     1.1041 0.0000e+00
     42.000     8.6347    31.3804    9.26010   97.14071    24.3386 1.8468e+00     42.338     1.0930 0.0000e+00
     43.000     8.6196    31.4052    9.25962   97.12413    24.3614 1.7949e+00     43.437     1.1043 0.0000e+00
     44.000     8.6086    31.4140    9.26882   97.21984    24.3695 1.7582e+00     44.400     1.1094 0.0000e+00
     45.000     8.5869    31.4381    9.27159   97.24074    24.3913 1.7199e+00     45.417     1.1260 0.0000e+00
     46.000     8.5815    31.4484    9.27316   97.25156    24.4012 1.6930e+00     46.456     1.1572 0.0000e+00
     47.000     8.5795    31.4500    9.28030   97.32251    24.4026 1.6676e+00     47.446     1.1747 0.0000e+00
     48.000     8.5744    31.4549    9.28423   97.30661    24.4072 1.6485e+00     48.586     1.1491 0.0000e+00
     49.000     8.5720    31.4584    9.28718   97.28696    24.4104 1.6329e+00     49.331     1.1576 0.0000e+00
     50.000     8.5680    31.4611    9.29218   97.28428    24.4128 1.6165e+00     50.546     1.1562 0.0000e+00
     51.000     8.5274    31.4872    9.29523   97.31062    24.4363 1.6057e+00     51.481     1.1905 0.0000e+00
     52.000     8.4908    31.5323    9.29557   97.29697    24.4784 1.5952e+00     52.472     1.1845 0.0000e+00
     53.000     8.4666    31.5633    9.29919   97.34025    24.5078 1.5866e+00     53.587     1.1708 0.0000e+00
     54.000     8.4629    31.5679    9.29960   97.33304    24.5122 1.5798e+00     54.500     1.1892 0.0000e+00
     55.000     8.4525    31.5729    9.30585   97.31449    24.5170 1.5734e+00     55.463     1.1765 0.0000e+00
     56.000     8.4553    31.5799    9.30585   97.29308    24.5236 1.5681e+00     56.490     1.1762 0.0000e+00
     57.000     8.4323    31.5790    9.31174   97.35506    24.5228 1.5637e+00     57.634     1.1757 0.0000e+00
     58.000     8.3902    31.6241    9.31872   97.43182    24.5654 1.5601e+00     58.530     1.1722 0.0000e+00
     59.000     8.3854    31.6393    9.31908   97.43382    24.5798 1.5570e+00     59.566     1.1630 0.0000e+00
     60.000     8.3865    31.6383    9.31697   97.41208    24.5791 1.5541e+00     60.543     1.1458 0.0000e+00
     61.000     8.3883    31.6357    9.32020   97.44566    24.5766 1.5525e+00     61.571     1.1578 0.0000e+00
     62.000     8.3874    31.6363    9.31881   97.43028    24.5772 1.5512e+00     62.582     1.1670 0.0000e+00
     63.000     8.3876    31.6360    9.32241   97.47019    24.5769 1.5500e+00     63.551     1.1585 0.0000e+00
     64.000     8.3874    31.6362    9.32044   97.44985    24.5771 1.5488e+00     64.709     1.1588 0.0000e+00
     65.000     8.3879    31.6362    9.32168   97.46187    24.5771 1.5480e+00     65.590     1.1806 0.0000e+00
     66.000     8.3887    31.6348    9.32503   97.49510    24.5758 1.5474e+00     66.613     1.1848 0.0000e+00
     67.000     8.3881    31.6351    9.33073   97.54707    24.5762 1.5470e+00     67.679     1.1934 0.0000e+00
     68.000     8.3877    31.6352    9.32945   97.53198    24.5762 1.5463e+00     68.641     1.1827 0.0000e+00
     69.000     8.3848    31.6365    9.32668   97.50309    24.5775 1.5459e+00     69.628     1.1577 0.0000e+00
     70.000     8.3814    31.6411    9.33181   97.55552    24.5817 1.5459e+00     70.693     1.1563 0.0000e+00
     71.000     8.3814    31.6411    9.33096   97.54724    24.5818 1.5457e+00     71.651     1.1486 0.0000e+00
     72.000     8.3808    31.6414    9.33176   97.55559    24.5822 1.5457e+00     72.672     1.1485 0.0000e+00
     73.000     8.3813    31.6409    9.33414   97.58056    24.5817 1.5453e+00     73.658     1.1516 0.0000e+00
     74.000     8.3812    31.6416    9.33851   97.62593    24.5822 1.5452e+00     74.717     1.1439 0.0000e+00
     75.000     8.3811    31.6412    9.34056   97.64650    24.5819 1.5452e+00     75.689     1.1301 0.0000e+00
     76.000     8.3809    31.6419    9.33855   97.61991    24.5825 1.5452e+00     76.737     1.1369 0.0000e+00
     77.000     8.3793    31.6422    9.33788   97.60076    24.5829 1.5449e+00     77.827     1.1368 0.0000e+00
     78.000     8.3752    31.6455    9.34049   97.62662    24.5860 1.5451e+00     78.706     1.1387 0.0000e+00
     79.000     8.3691    31.6510    9.34737   97.69386    24.5912 1.5449e+00     79.831     1.1501 0.0000e+00
     80.000     8.3688    31.6520    9.34342   97.65486    24.5922 1.5450e+00     80.760     1.1320 0.0000e+00
     81.000     8.3667    31.6532    9.34227   97.64262    24.5934 1.5447e+00     81.623     1.1595 0.0000e+00
     82.000     8.3730    31.6558    9.33293   97.56181    24.5951 1.5458e+00     82.411     1.1050 0.0000e+00
     81.000     8.3720    31.6539    9.33864   97.61792    24.5934 1.5446e+00     81.726     1.1409 0.0000e+00
     80.000     8.3723    31.6524    9.34106   97.64085    24.5921 1.5450e+00     80.759     1.1916 0.0000e+00
     79.000     8.3743    31.6497    9.34528   97.68545    24.5895 1.5449e+00     79.750     1.1709 0.0000e+00
     78.000     8.3726    31.6511    9.33981   97.63113    24.5909 1.5452e+00     78.754     1.1976 0.0000e+00
     77.000     8.3750    31.6515    9.33929   97.62660    24.5911 1.5452e+00     77.756     1.2289 0.0000e+00
     76.000     8.3753    31.6482    9.34257   97.66646    24.5883 1.5451e+00     76.732     1.2325 0.0000e+00
     75.000     8.3763    31.6478    9.33718   97.61435    24.5878 1.5451e+00     75.700     1.2327 0.0000e+00
     74.000     8.3805    31.6448    9.34393   97.68549    24.5850 1.5453e+00     74.718     1.2403 0.0000e+00
     73.000     8.3827    31.6424    9.34471   97.69012    24.5827 1.5452e+00     73.716     1.2127 0.0000e+00
     72.000     8.3811    31.6418    9.34218   97.66231    24.5823 1.5453e+00     72.697     1.2767 0.0000e+00
     71.000     8.3800    31.6436    9.33083   97.54159    24.5840 1.5454e+00     71.669     1.2653 0.0000e+00
     70.000     8.3792    31.6434    9.33331   97.56510    24.5840 1.5456e+00     70.659     1.2247 0.0000e+00
     69.000     8.3774    31.6443    9.33859   97.62270    24.5848 1.5459e+00     69.647     1.1765 0.0000e+00
     68.000     8.3786    31.6446    9.34187   97.65792    24.5851 1.5461e+00     68.703     1.1586 0.0000e+00
     67.000     8.3787    31.6433    9.34118   97.65034    24.5839 1.5469e+00     67.619     1.2335 0.0000e+00
     66.000     8.3788    31.6437    9.34266   97.66778    24.5842 1.5474e+00     66.666     1.1940 0.0000e+00
     65.000     8.3792    31.6430    9.34376   97.68130    24.5836 1.5479e+00     65.538     1.1904 0.0000e+00
     64.000     8.3811    31.6413    9.34598   97.71575    24.5822 1.5490e+00     64.650     1.2546 0.0000e+00
     63.000     8.3824    31.6402    9.34616   97.73145    24.5811 1.5501e+00     63.579     1.2496 0.0000e+00
     62.000     8.3933    31.6321    9.33889   97.66000    24.5734 1.5516e+00     62.601     1.2280 0.0000e+00
     61.000     8.3957    31.6273    9.32613   97.56941    24.5689 1.5535e+00     61.535     1.2339 0.0000e+00
     60.000     8.4081    31.6201    9.32408   97.57003    24.5621 1.5555e+00     60.633     1.2416 0.0000e+00
     59.000     8.4351    31.5976    9.33640   97.71962    24.5408 1.5582e+00     59.491     1.2501 0.0000e+00
     58.000     8.4426    31.5868    9.34143   97.76855    24.5304 1.5612e+00     58.557     1.2464 0.0000e+00
     57.000     8.4499    31.5805    9.33848   97.73476    24.5243 1.5647e+00     57.527     1.2101 0.0000e+00
     56.000     8.4464    31.5830    9.33798   97.73220    24.5267 1.5690e+00     56.529     1.1878 0.0000e+00
     55.000     8.4465    31.5831    9.33538   97.72942    24.5268 1.5740e+00     55.559     1.1731 0.0000e+00
     54.000     8.4529    31.5806    9.33413   97.70259    24.5244 1.5801e+00     54.502     1.3511 0.0000e+00
     53.000     8.4677    31.5640    9.33520   97.73312    24.5089 1.5872e+00     53.535     1.2210 0.0000e+00
     52.000     8.4511    31.5769    9.34628   97.92239    24.5209 1.5953e+00     52.429     1.1736 0.0000e+00
     51.000     8.4810    31.5579    9.33902   97.88111    24.5033 1.6056e+00     51.543     1.1611 0.0000e+00
     50.000     8.5215    31.5175    9.33882   97.90082    24.4656 1.6176e+00     50.424     1.0849 0.0000e+00
     49.000     8.5426    31.4907    9.33852   97.91123    24.4408 1.6310e+00     49.475     1.0338 0.0000e+00
     48.000     8.5490    31.4829    9.33933   97.95750    24.4333 1.6481e+00     48.445     1.0314 0.0000e+00
     47.000     8.5694    31.4629    9.33629   97.94250    24.4154 1.6681e+00     47.466     1.0454 0.0000e+00
     46.000     8.5850    31.4394    9.33798   97.98612    24.3939 1.6913e+00     46.427     0.9886 0.0000e+00
     45.000     8.6012    31.4234    9.33065   97.94187    24.3794 1.7203e+00     45.364     0.9668 0.0000e+00
     44.000     8.6158    31.4095    9.32831   97.92668    24.3668 1.7514e+00     44.555     1.0033 0.0000e+00
     43.000     8.6350    31.3832    9.32601   97.91741    24.3426 1.7912e+00     43.354     0.9062 0.0000e+00
     42.000     8.6418    31.3765    9.33149   98.01368    24.3364 1.8404e+00     42.376     0.9207 0.0000e+00
     41.000     8.6530    31.3671    9.33251   98.07138    24.3277 1.8960e+00     41.457     0.9687 0.0000e+00
     40.000     8.6814    31.3397    9.33428   98.14742    24.3027 1.9629e+00     40.362     0.9459 0.0000e+00
     39.000     8.7139    31.3047    9.33395   98.24197    24.2702 2.0440e+00     39.391     0.9210 0.0000e+00
     38.000     8.7491    31.2710    9.33175   98.28163    24.2392 2.1339e+00     38.292     0.9244 0.0000e+00
     37.000     8.8157    31.2069    9.32401   98.24958    24.1796 2.2392e+00     37.345     0.9656 0.0000e+00
     36.000     8.8398    31.1767    9.32340   98.35562    24.1510 2.3725e+00     36.385     0.9250 0.0000e+00
     35.000     8.8960    31.1380    9.32277   98.39997    24.1146 2.5263e+00     35.254     0.9259 0.0000e+00
     34.000     8.9529    31.0786    9.31954   98.38094    24.0579 2.7035e+00     34.322     0.9697 0.0000e+00
     33.000     8.9674    31.0596    9.31672   98.36147    24.0395 2.9045e+00     33.389     0.9420 0.0000e+00
     32.000     8.9805    31.0490    9.31314   98.35269    24.0293 3.1665e+00     32.219     0.9257 0.0000e+00
     31.000     8.9880    31.0418    9.30862   98.30826    24.0227 3.4710e+00     31.345     0.9653 0.0000e+00
     30.000     9.0061    31.0188    9.30991   98.32474    24.0019 3.8186e+00     30.244     1.0191 0.0000e+00
     29.000     9.0071    31.0147    9.31118   98.34967    23.9979 4.2242e+00     29.217     1.0434 0.0000e+00
     28.000     9.0099    31.0114    9.31220   98.36533    23.9952 4.7478e+00     28.327     1.0517 0.0000e+00
     27.000     9.0177    31.0007    9.31727   98.45853    23.9856 5.3635e+00     27.133     1.0369 0.0000e+00
     26.000     9.0192    31.0007    9.31494   98.44751    23.9855 6.0614e+00     26.349     1.0070 0.0000e+00
     25.000     9.0504    30.9609    9.30423   98.36730    23.9506 6.9197e+00     25.140     1.0118 0.0000e+00
     24.000     9.0625    30.9436    9.30191   98.37269    23.9349 7.9971e+00     24.324     0.9951 0.0000e+00
     23.000     9.0829    30.9161    9.29524   98.38924    23.9098 9.1885e+00     23.117     0.9864 0.0000e+00
     22.000     9.1055    30.8969    9.30029   98.49343    23.8926 1.0698e+01     22.197     1.0311 0.0000e+00
     21.000     9.1523    30.8482    9.30361   98.71614    23.8476 1.2512e+01     21.216     1.0599 0.0000e+00
     20.000     9.1975    30.8020    9.31505   99.02185    23.8048 1.4505e+01     20.131     1.0809 0.0000e+00
     19.000     9.3090    30.7081    9.32177   99.24053    23.7178 1.7270e+01     19.231     1.1203 0.0000e+00
     18.000     9.4339    30.5732    9.32725   99.46145    23.5904 2.0420e+01     18.082     1.1400 0.0000e+00
     17.000     9.5247    30.4991    9.32146   99.47724    23.5200 2.4236e+01     17.206     1.1549 0.0000e+00
     16.000     9.6143    30.4091    9.32106   99.62975    23.4334 2.8721e+01     16.097     1.1584 0.0000e+00
     15.000     9.6679    30.3696    9.32154   99.72668    23.3949 3.4325e+01     15.170     1.1517 0.0000e+00
     14.000     9.7692    30.2839    9.32719   99.86586    23.3130 4.0953e+01     14.097     1.1321 0.0000e+00
     13.000     9.8191    30.2162    9.32782   99.92635    23.2501 4.9915e+01     13.138     1.1322 0.0000e+00
     12.000     9.8801    30.1356    9.33653  100.05641    23.1783 6.0486e+01     12.135     1.1782 0.0000e+00
     11.000     9.9213    30.0733    9.34015  100.12170    23.1219 7.3726e+01     11.060     1.2069 0.0000e+00
     10.000     9.9441    30.0316    9.34338  100.12803    23.0851 8.9226e+01     10.121     1.2155 0.0000e+00
      9.000     9.9638    29.9924    9.34015  100.07754    23.0510 1.0991e+02      9.066     1.2765 0.0000e+00
      8.000     9.9606    29.9544    9.33915  100.06807    23.0213 1.2932e+02      8.101     1.3136 0.0000e+00
      7.000     9.9585    29.9401    9.33519  100.03337    23.0107 1.5961e+02      7.058     1.2887 0.0000e+00
      6.000     9.9621    29.9322    9.32397   99.92013    23.0043 1.8788e+02      6.084     1.2448 0.0000e+00
      5.000     9.9711    29.9143    9.33793  100.11493    22.9887 2.0182e+02      4.986     1.1223 0.0000e+00
      4.000     9.9791    29.9002    9.33686  100.33226    22.9768 2.0844e+02      4.053     1.0410 0.0000e+00
      3.000    10.0504    29.8209    9.35706  101.70996    22.9078 2.0068e+02      3.049     1.0271 0.0000e+00
      2.000    10.2746    29.5996    9.26657  102.48177    22.7136 1.8437e+02      2.009     0.9650 0.0000e+00
      1.000    11.2976    28.3214    9.21293   99.65285    21.5836 2.6819e+02      1.082     0.6763 0.0000e+00
