* Sea-Bird SBE19plus Data File:
* FileName = C:\data\otf\2007\ctd-07098.hex
* Software Version 1.55
* Temperature SN =  5061
* Conductivity SN =  5061
* System UpLoad Time = Aug 15 2007 16:32:34
* ds
* SeacatPlus V 1.6a  SERIAL NO. 5061    15 Aug 2007  15:31:53
* vbatt = 10.9, vlith =  8.7, ioper =  61.6 ma, ipump =  57.5 ma, 
* iext01 =  95.2 ma
* iext23 =  58.1 ma
* 
* status = not logging
* number of scans to average = 1
* samples = 153039, free = 288466, casts = 154
* mode = profile, minimum cond freq = 3000, pump delay = 60 sec
* autorun = no, ignore magnetic switch = no
* battery type = alkaline, battery cutoff =  7.3 volts
* pressure sensor = strain gauge, range = 870.0
* SBE 38 = no, Gas Tension Device = no
* Ext Volt 0 = yes, Ext Volt 1 = yes, Ext Volt 2 = yes, Ext Volt 3 = yes
* echo commands = yes
* output format = raw HEX
* S>
* 
* SeacatPlus V 1.6a  SERIAL NO. 5061    15 Aug 2007  15:32:18
* temperature:  05-oct-06
*     TA0 = 1.254184e-03
*     TA1 = 2.596730e-04
*     TA2 = 5.165612e-07
*     TA3 = 1.318931e-07
*     TOFFSET = 0.000000e+00
* conductivity:  05-oct-06
*     G = -9.978144e-01
*     H = 1.555200e-01
*     I = -4.839108e-04
*     J = 6.121100e-05
*     CF0 = 2.539936e+03
*     CPCOR = -9.570000e-08
*     CTCOR = 3.250000e-06
*     CSLOPE = 1.000000e+00
* pressure S/N = 2362539, range = 870 psia:  24-aug-06
*     PA0 = 2.171091e-01
*     PA1 = 2.647085e-03
*     PA2 = 1.419397e-11
*     PTCA0 = 5.242437e+05
*     PTCA1 = 7.545345e+00
*     PTCA2 = -1.835354e-01
*     PTCB0 = 2.537125e+01
*     PTCB1 = -1.750000e-03
*     PTCB2 = 0.000000e+00
*     PTEMPA0 = -5.753989e+01
*     PTEMPA1 = 5.235813e+01
*     PTEMPA2 = -4.015521e-02
*     POFFSET = 0.000000e+00
* volt 0: offset = -4.682842e-02, slope = 1.249147e+00
* volt 1: offset = -4.695158e-02, slope = 1.248145e+00
* volt 2: offset = -4.685263e-02, slope = 1.248783e+00
* volt 3: offset = -4.690316e-02, slope = 1.249508e+00
*     EXTFREQSF = 1.000002e+00
* dh
* cast  98 19 Jul 2007 16:33:38 samples 65126 to 65428, avg = 4, stop = mag switch
* S> 
# nquan = 10
# nvalues = 159                         
# units = specified
# name 0 = depSM: Depth [salt water, m]
# name 1 = tv290C: Temperature [ITS-90, deg C]
# name 2 = sal00: Salinity [PSU]
# name 3 = sbeox0Mg/L: Oxygen, SBE 43 [mg/l]
# name 4 = sbeox0PS: Oxygen, SBE 43 [% saturation]
# name 5 = sigma-t00: Density [sigma-t, Kg/m^3 ]
# name 6 = par: PAR/Irradiance, Biospherical/Licor
# name 7 = prdM: Pressure, Strain Gauge [db]
# name 8 = flECO-AFL: Fluorescence, Wetlab ECO-AFL/FL [mg/m^3]
# name 9 = flag: flag
# span 0 =      1.000,     82.000       
# span 1 =     8.7131,    10.2534       
# span 2 =    30.3192,    31.3123       
# span 3 =    8.70936,    9.69713       
# span 4 =   93.32515,  102.09113       
# span 5 =    23.2898,    24.2749       
# span 6 = 1.5425e+00, 1.4815e+03       
# span 7 =      2.100,     81.638       
# span 8 =     0.4863,     1.0349       
# span 9 = 0.0000e+00, 0.0000e+00       
# interval = meters: 1                  
# start_time = Jul 19 2007 16:33:38
# bad_flag = -9.990e-29
# sensor 0 = Frequency 0  temperature, 5061, 05-Oct-06
# sensor 1 = Frequency 1  conductivity, 5061, 05-Oct-06, cpcor = -9.5700e-08
# sensor 2 = Pressure Number
# sensor 3 = Extrnl Volt  0  irradiance (PAR), primary, 4751, 08/10/06
# sensor 4 = Extrnl Volt  1  Oxygen, SBE, primary, 1081, 10/24/06
# sensor 5 = Extrnl Volt  2  WET Labs, ECO_AFL
# sensor 6 = Extrnl Volt  3  userpoly 0, 0627, 10/11/06
# datcnv_date = Oct 15 2007 14:49:47, 5.37e
# datcnv_in = I:\bob d\OTF_GEM\2007\ctd-07098.hex I:\Willette\OTF\CTD\5061.con
# datcnv_skipover = 0
# filter_date = Oct 15 2007 15:02:29, 5.37e
# filter_in = I:\Willette\OTF\CTD\2007\CTD Data\ctd-07098.cnv
# filter_low_pass_tc_A = 1.000
# filter_low_pass_tc_B = 0.150
# filter_low_pass_A_vars = prdM
# filter_low_pass_B_vars =
# loopedit_date = Oct 15 2007 15:06:50, 5.37e
# loopedit_in = I:\Willette\OTF\CTD\2007\CTD Data\ctd-07098.cnv
# loopedit_minVelocity = 0.250                                                                                            
# loopedit_surfaceSoak: minDepth = 5.0, maxDepth = 20, useDeckPress = 1                                                   
# loopedit_excl_bad_scans = yes
# alignctd_date = Oct 15 2007 15:14:17, 5.37e
# alignctd_in = I:\Willette\OTF\CTD\2007\CTD Data\ctd-07098.cnv
# alignctd_adv = tv290C 0.500, sbeox0Mg/L 4.000, sbeox0PS 4.000                                                                                                                                                                      
# binavg_date = Oct 15 2007 15:18:46, 5.37e
# binavg_in = I:\Willette\OTF\CTD\2007\CTD Data\ctd-07098.cnv
# binavg_bintype = meters
# binavg_binsize = 1
# binavg_excl_bad_scans = yes
# binavg_skipover = 0
# binavg_surface_bin = no, min = 0.000, max = 0.000, value = 0.000
# file_type = ascii
*END*
      5.000    10.0367    30.3380    8.70936   93.32515    23.2898 2.3408e+02      5.240     0.8062 0.0000e+00
      6.000     9.9983    30.3754    8.72818   93.49114    23.3345 1.6146e+02      6.159     0.9369 0.0000e+00
      7.000     9.9762    30.3654    8.79394   94.10750    23.3345 1.1204e+02      7.093     1.0349 0.0000e+00
      8.000     9.9514    30.3727    8.83328   94.43247    23.3448 7.7632e+01      8.063     1.0002 0.0000e+00
      9.000     9.9269    30.3863    9.02612   96.41196    23.3594 5.1804e+01      9.155     0.9134 0.0000e+00
     10.000     9.9203    30.3501    9.16778   97.83130    23.3345 3.7483e+01     10.172     0.8584 0.0000e+00
     11.000     9.8915    30.3835    9.23002   98.45229    23.3632 2.5091e+01     11.330     0.8507 0.0000e+00
     12.000     9.8456    30.3735    9.28972   99.02987    23.3594 1.7485e+01     12.648     0.8537 0.0000e+00
     13.000     9.8401    30.3585    9.30991   99.22654    23.3515 1.3218e+01     13.432     0.8289 0.0000e+00
     14.000     9.8280    30.3869    9.32910   99.40917    23.3773 9.2782e+00     14.330     0.8188 0.0000e+00
     15.000     9.7994    30.3911    9.34830   99.60910    23.3829 6.6936e+00     15.309     0.8239 0.0000e+00
     16.000     9.7377    30.3945    9.36653   99.80168    23.3859 5.0125e+00     16.494     0.8114 0.0000e+00
     17.000     9.7249    30.3951    9.37006   99.81292    23.3925 4.1100e+00     17.088     0.7912 0.0000e+00
     18.000     9.6845    30.4339    9.37419   99.83717    23.4302 3.2219e+00     18.047     0.7684 0.0000e+00
     19.000     9.6400    30.4555    9.38610   99.95104    23.4550 2.6836e+00     19.327     0.7767 0.0000e+00
     20.000     9.6134    30.4747    9.39796  100.05418    23.4746 2.3613e+00     20.311     0.7507 0.0000e+00
     21.000     9.5918    30.5071    9.41032  100.13782    23.5063 2.1034e+00     21.248     0.7320 0.0000e+00
     22.000     9.5570    30.5272    9.42129  100.20085    23.5261 1.9090e+00     22.624     0.7261 0.0000e+00
     23.000     9.5444    30.5509    9.43069  100.22168    23.5493 1.8011e+00     23.691     0.7351 0.0000e+00
     24.000     9.5321    30.5601    9.43814  100.20254    23.5586 1.7240e+00     24.643     0.7331 0.0000e+00
     25.000     9.5232    30.5667    9.44596  100.24187    23.5652 1.6731e+00     25.461     0.7303 0.0000e+00
     26.000     9.5241    30.5759    9.45436  100.26708    23.5739 1.6348e+00     26.272     0.7262 0.0000e+00
     27.000     9.5236    30.5850    9.47118  100.38943    23.5825 1.6062e+00     27.144     0.7304 0.0000e+00
     28.000     9.5091    30.5842    9.48731  100.50075    23.5817 1.5859e+00     28.138     0.7258 0.0000e+00
     29.000     9.4913    30.5872    9.50375  100.61856    23.5844 1.5723e+00     29.306     0.7351 0.0000e+00
     30.000     9.4899    30.6144    9.51819  100.72493    23.6093 1.5639e+00     30.518     0.7293 0.0000e+00
     31.000     9.4822    30.6189    9.52839  100.82477    23.6138 1.5582e+00     31.554     0.7185 0.0000e+00
     32.000     9.4682    30.6221    9.54168  100.95477    23.6170 1.5538e+00     32.563     0.7086 0.0000e+00
     33.000     9.4371    30.6281    9.54616  100.99423    23.6229 1.5514e+00     33.573     0.7102 0.0000e+00
     34.000     9.4227    30.6371    9.54759  100.98144    23.6317 1.5493e+00     34.323     0.6966 0.0000e+00
     35.000     9.4091    30.6636    9.55646  101.02755    23.6571 1.5477e+00     35.392     0.6768 0.0000e+00
     36.000     9.3584    30.6800    9.56562  101.07256    23.6731 1.5468e+00     36.409     0.6828 0.0000e+00
     37.000     9.3075    30.6883    9.57426  101.14053    23.6812 1.5462e+00     37.296     0.6849 0.0000e+00
     38.000     9.2789    30.7337    9.58338  101.21140    23.7237 1.5456e+00     38.218     0.6928 0.0000e+00
     39.000     9.2284    30.7915    9.59460  101.28637    23.7789 1.5453e+00     39.338     0.7121 0.0000e+00
     40.000     9.1962    30.8165    9.59615  101.27576    23.8024 1.5455e+00     40.292     0.7205 0.0000e+00
     41.000     9.1690    30.8530    9.60106  101.31051    23.8370 1.5450e+00     41.094     0.7370 0.0000e+00
     42.000     9.1389    30.8902    9.61261  101.38224    23.8722 1.5450e+00     42.182     0.7304 0.0000e+00
     43.000     9.1046    30.9270    9.62513  101.48730    23.9069 1.5450e+00     43.326     0.7585 0.0000e+00
     44.000     9.1057    30.9440    9.63029  101.50843    23.9229 1.5446e+00     44.033     0.7391 0.0000e+00
     45.000     9.0990    30.9706    9.63421  101.50731    23.9482 1.5448e+00     45.309     0.7603 0.0000e+00
     46.000     9.0944    30.9731    9.63771  101.53535    23.9506 1.5445e+00     46.157     0.7542 0.0000e+00
     47.000     9.0680    30.9801    9.63999  101.55232    23.9572 1.5445e+00     47.273     0.7556 0.0000e+00
     48.000     9.0299    30.9977    9.64719  101.59477    23.9737 1.5447e+00     48.446     0.7603 0.0000e+00
     49.000     9.0063    31.0233    9.65292  101.64044    23.9979 1.5449e+00     49.434     0.8011 0.0000e+00
     50.000     8.9877    31.0553    9.65730  101.68602    24.0282 1.5447e+00     50.430     0.7792 0.0000e+00
     51.000     8.9569    31.0719    9.66576  101.76840    24.0442 1.5447e+00     51.566     0.7980 0.0000e+00
     52.000     8.9444    31.0903    9.66138  101.71875    24.0616 1.5448e+00     52.409     0.7929 0.0000e+00
     53.000     8.9123    31.1158    9.65901  101.69295    24.0858 1.5447e+00     53.685     0.7972 0.0000e+00
     54.000     8.8995    31.1262    9.65825  101.68443    24.0958 1.5443e+00     54.462     0.8002 0.0000e+00
     55.000     8.8717    31.1515    9.65824  101.68921    24.1200 1.5446e+00     55.591     0.7935 0.0000e+00
     56.000     8.8544    31.1696    9.66287  101.74081    24.1373 1.5447e+00     56.523     0.7964 0.0000e+00
     57.000     8.8439    31.1887    9.66362  101.74785    24.1555 1.5447e+00     57.454     0.8145 0.0000e+00
     58.000     8.8430    31.2028    9.66167  101.71605    24.1692 1.5448e+00     58.459     0.8132 0.0000e+00
     59.000     8.8271    31.2077    9.65933  101.66639    24.1738 1.5447e+00     59.589     0.8280 0.0000e+00
     60.000     8.8158    31.2106    9.65601  101.60690    24.1769 1.5448e+00     60.676     0.8299 0.0000e+00
     61.000     8.8135    31.2241    9.66241  101.67047    24.1900 1.5447e+00     61.492     0.8347 0.0000e+00
     62.000     8.8112    31.2300    9.67028  101.75510    24.1957 1.5448e+00     62.426     0.8308 0.0000e+00
     63.000     8.8074    31.2291    9.68012  101.83555    24.1949 1.5447e+00     63.570     0.8409 0.0000e+00
     64.000     8.8073    31.2324    9.68210  101.82406    24.1982 1.5448e+00     64.638     0.8405 0.0000e+00
     65.000     8.8071    31.2337    9.68654  101.83727    24.1995 1.5446e+00     65.623     0.8500 0.0000e+00
     66.000     8.8080    31.2340    9.68950  101.85647    24.1998 1.5448e+00     66.491     0.8584 0.0000e+00
     67.000     8.8123    31.2337    9.69075  101.86344    24.1995 1.5446e+00     67.669     0.8461 0.0000e+00
     68.000     8.8109    31.2304    9.69604  101.91707    24.1963 1.5450e+00     68.571     0.8606 0.0000e+00
     69.000     8.8046    31.2296    9.69713  101.92714    24.1956 1.5448e+00     69.530     0.8302 0.0000e+00
     70.000     8.7881    31.2338    9.69080  101.86443    24.1996 1.5447e+00     70.801     0.8348 0.0000e+00
     71.000     8.7756    31.2431    9.68972  101.85308    24.2087 1.5450e+00     71.739     0.8371 0.0000e+00
     72.000     8.7747    31.2530    9.68534  101.80559    24.2182 1.5447e+00     72.709     0.8453 0.0000e+00
     73.000     8.7758    31.2629    9.68914  101.84251    24.2277 1.5448e+00     73.558     0.8712 0.0000e+00
     74.000     8.7573    31.2602    9.69432  101.89804    24.2251 1.5445e+00     74.690     0.8649 0.0000e+00
     75.000     8.7456    31.2662    9.69338  101.89319    24.2309 1.5446e+00     75.523     0.8662 0.0000e+00
     76.000     8.7282    31.2782    9.68889  101.85139    24.2423 1.5446e+00     76.372     0.8900 0.0000e+00
     77.000     8.7186    31.2882    9.68086  101.76248    24.2520 1.5446e+00     77.261     0.8949 0.0000e+00
     78.000     8.7139    31.3093    9.67944  101.74533    24.2723 1.5449e+00     78.248     0.9145 0.0000e+00
     79.000     8.7141    31.3094    9.68220  101.77292    24.2725 1.5445e+00     78.930     0.9625 0.0000e+00
     80.000     8.7131    31.3108    9.68581  101.81733    24.2737 1.5448e+00     79.512     0.9879 0.0000e+00
     81.000     8.7145    31.3120    9.68894  101.86864    24.2749 1.5448e+00     80.336     1.0068 0.0000e+00
     82.000     8.7143    31.3101    9.67925  101.80912    24.2730 1.5453e+00     81.638     0.9674 0.0000e+00
     81.000     8.7168    31.3123    9.68193  101.87298    24.2749 1.5444e+00     80.946     1.0317 0.0000e+00
     80.000     8.7150    31.3115    9.68035  101.83627    24.2742 1.5445e+00     80.142     0.9819 0.0000e+00
     79.000     8.7235    31.3116    9.67411  101.80567    24.2744 1.5445e+00     79.232     1.0263 0.0000e+00
     78.000     8.7370    31.3066    9.67831  101.89857    24.2694 1.5447e+00     78.453     0.9971 0.0000e+00
     77.000     8.7432    31.2952    9.67973  101.92228    24.2585 1.5443e+00     77.588     0.9461 0.0000e+00
     76.000     8.7453    31.2869    9.67678  101.90233    24.2504 1.5442e+00     76.482     0.8610 0.0000e+00
     75.000     8.7628    31.2862    9.68017  101.94308    24.2500 1.5447e+00     75.776     0.9218 0.0000e+00
     74.000     8.7648    31.2723    9.67968  101.94046    24.2368 1.5448e+00     74.671     0.9285 0.0000e+00
     73.000     8.7629    31.2706    9.68231  101.97158    24.2350 1.5440e+00     73.669     0.8932 0.0000e+00
     72.000     8.7628    31.2693    9.67918  101.94190    24.2338 1.5443e+00     72.774     0.8933 0.0000e+00
     71.000     8.8010    31.2710    9.67706  101.92577    24.2355 1.5447e+00     71.679     0.8985 0.0000e+00
     70.000     8.8130    31.2361    9.67957  101.95453    24.2021 1.5445e+00     70.559     0.8931 0.0000e+00
     69.000     8.8173    31.2299    9.67897  101.94908    24.1961 1.5444e+00     69.730     0.8623 0.0000e+00
     68.000     8.8214    31.2249    9.67380  101.90168    24.1912 1.5442e+00     68.776     0.8110 0.0000e+00
     67.000     8.8249    31.2205    9.67093  101.88179    24.1870 1.5441e+00     67.615     0.8363 0.0000e+00
     66.000     8.8253    31.2191    9.67228  101.90174    24.1856 1.5425e+00     66.747     0.8488 0.0000e+00
     65.000     8.8297    31.2187    9.67012  101.89089    24.1852 1.5461e+00     65.053     0.7554 0.0000e+00
     64.000     8.8306    31.2169    9.67536  101.95978    24.1833 1.5446e+00     64.665     0.8273 0.0000e+00
     63.000     8.8322    31.2146    9.67487  101.97204    24.1811 1.5445e+00     63.653     0.8254 0.0000e+00
     62.000     8.8336    31.2144    9.68188  102.09113    24.1807 1.5442e+00     62.264     0.8051 0.0000e+00
     61.000     8.8369    31.2126    9.66811  101.96851    24.1791 1.5444e+00     61.654     0.7973 0.0000e+00
     60.000     8.8426    31.2091    9.66159  101.92980    24.1757 1.5445e+00     60.599     0.8244 0.0000e+00
     59.000     8.8468    31.2048    9.65827  101.94317    24.1716 1.5446e+00     59.528     0.8393 0.0000e+00
     58.000     8.8512    31.2018    9.65664  101.96881    24.1687 1.5446e+00     58.544     0.8095 0.0000e+00
     57.000     8.8618    31.1979    9.65441  101.98025    24.1649 1.5444e+00     57.577     0.8062 0.0000e+00
     56.000     8.8724    31.1873    9.64758  101.96753    24.1548 1.5444e+00     56.448     0.7972 0.0000e+00
     55.000     8.8883    31.1817    9.64428  101.97144    24.1495 1.5446e+00     55.625     0.8207 0.0000e+00
     54.000     8.9125    31.1627    9.63680  101.92974    24.1314 1.5444e+00     54.446     0.8276 0.0000e+00
     53.000     8.9284    31.1449    9.63378  101.94544    24.1144 1.5447e+00     53.448     0.7920 0.0000e+00
     52.000     8.9534    31.1331    9.62516  101.88700    24.1031 1.5446e+00     52.506     0.7355 0.0000e+00
     51.000     8.9816    31.1054    9.61391  101.81284    24.0771 1.5446e+00     51.413     0.7408 0.0000e+00
     50.000     8.9989    31.0847    9.60749  101.80412    24.0574 1.5447e+00     50.476     0.7394 0.0000e+00
     49.000     9.0294    31.0692    9.60169  101.79713    24.0426 1.5444e+00     49.488     0.7622 0.0000e+00
     48.000     9.0550    31.0384    9.59568  101.77419    24.0135 1.5447e+00     48.476     0.7571 0.0000e+00
     47.000     9.0785    31.0107    9.58369  101.69277    23.9873 1.5446e+00     47.363     0.7446 0.0000e+00
     46.000     9.0987    30.9925    9.56085  101.52469    23.9703 1.5446e+00     46.430     0.7204 0.0000e+00
     45.000     9.1242    30.9710    9.55481  101.55470    23.9501 1.5447e+00     45.431     0.7117 0.0000e+00
     44.000     9.1483    30.9454    9.54333  101.49391    23.9260 1.5446e+00     44.340     0.7208 0.0000e+00
     43.000     9.1782    30.9250    9.53647  101.48006    23.9068 1.5446e+00     43.358     0.7057 0.0000e+00
     42.000     9.2128    30.8973    9.52326  101.37800    23.8806 1.5446e+00     42.372     0.6720 0.0000e+00
     41.000     9.2438    30.8549    9.51441  101.31390    23.8404 1.5454e+00     41.178     0.6029 0.0000e+00
     40.000     9.2587    30.8410    9.50771  101.26086    23.8273 1.5458e+00     40.434     0.6456 0.0000e+00
     39.000     9.2865    30.8199    9.50010  101.19580    23.8073 1.5454e+00     39.302     0.6463 0.0000e+00
     38.000     9.3359    30.7983    9.49883  101.18734    23.7871 1.5457e+00     38.425     0.6343 0.0000e+00
     37.000     9.3909    30.7505    9.48864  101.08027    23.7421 1.5462e+00     37.422     0.6070 0.0000e+00
     36.000     9.4164    30.7019    9.49184  101.11783    23.6957 1.5471e+00     36.454     0.5520 0.0000e+00
     35.000     9.4532    30.6763    9.48840  101.09841    23.6709 1.5475e+00     35.446     0.5595 0.0000e+00
     34.000     9.4762    30.6411    9.48150  101.04537    23.6372 1.5490e+00     34.360     0.5677 0.0000e+00
     33.000     9.4903    30.6240    9.47969  101.04381    23.6208 1.5509e+00     33.421     0.5723 0.0000e+00
     32.000     9.5025    30.6105    9.47828  101.03985    23.6077 1.5536e+00     32.398     0.5756 0.0000e+00
     31.000     9.5088    30.6003    9.48020  101.06543    23.5977 1.5579e+00     31.324     0.5609 0.0000e+00
     30.000     9.5106    30.5964    9.46612  100.91928    23.5937 1.5643e+00     30.291     0.5638 0.0000e+00
     29.000     9.5135    30.5954    9.46988  100.97333    23.5927 1.5722e+00     29.189     0.5588 0.0000e+00
     28.000     9.5262    30.5900    9.47124  101.03366    23.5878 1.5871e+00     28.266     0.5632 0.0000e+00
     27.000     9.5391    30.5788    9.46155  100.96365    23.5774 1.6057e+00     27.255     0.5337 0.0000e+00
     26.000     9.5516    30.5639    9.46614  101.03608    23.5636 1.6324e+00     26.263     0.5695 0.0000e+00
     25.000     9.5567    30.5512    9.46235  101.05417    23.5519 1.6756e+00     25.198     0.5570 0.0000e+00
     24.000     9.5589    30.5457    9.45854  101.11020    23.5468 1.7322e+00     24.266     0.5382 0.0000e+00
     23.000     9.5615    30.5432    9.45355  101.16822    23.5442 1.8135e+00     22.996     0.5613 0.0000e+00
     22.000     9.5726    30.5423    9.44459  101.13988    23.5433 1.9457e+00     22.202     0.5668 0.0000e+00
     21.000     9.6016    30.5360    9.43356  101.11099    23.5367 2.1207e+00     20.933     0.5854 0.0000e+00
     20.000     9.6134    30.5190    9.43064  101.08350    23.5198 2.3856e+00     20.093     0.5419 0.0000e+00
     19.000     9.6255    30.5080    9.43471  101.14622    23.5087 2.7597e+00     19.155     0.5413 0.0000e+00
     18.000     9.6528    30.4985    9.43551  101.18560    23.4992 3.3270e+00     18.044     0.5701 0.0000e+00
     17.000     9.6956    30.4806    9.43459  101.19941    23.4815 4.1023e+00     17.094     0.5729 0.0000e+00
     16.000     9.7458    30.4499    9.43350  101.21640    23.4508 5.3696e+00     16.073     0.5919 0.0000e+00
     15.000     9.7896    30.4104    9.43226  101.24722    23.4117 7.0099e+00     14.953     0.6090 0.0000e+00
     14.000     9.8279    30.3901    9.43492  101.31643    23.3913 9.5111e+00     14.161     0.6032 0.0000e+00
     13.000     9.8541    30.3576    9.43503  101.37872    23.3573 1.3340e+01     12.988     0.6246 0.0000e+00
     12.000     9.8603    30.3387    9.43668  101.49049    23.3385 1.8031e+01     12.059     0.6145 0.0000e+00
     11.000     9.8703    30.3370    9.43232  101.61242    23.3362 2.5510e+01     11.103     0.6098 0.0000e+00
     10.000     9.8808    30.3317    9.42676  101.84074    23.3305 3.6927e+01     10.130     0.6653 0.0000e+00
      9.000     9.8939    30.3295    9.35226  101.06683    23.3269 5.3290e+01      8.984     0.6907 0.0000e+00
      8.000     9.9029    30.3249    9.25978   99.86360    23.3218 7.5331e+01      8.191     0.6713 0.0000e+00
      7.000     9.9150    30.3244 -9.990e-29 -9.990e-29    23.3197 1.1214e+02      7.176     0.7356 0.0000e+00
      6.000     9.9329    30.3229 -9.990e-29 -9.990e-29    23.3166 1.6878e+02      6.238     0.8052 0.0000e+00
      5.000     9.9573    30.3224 -9.990e-29 -9.990e-29    23.3142 2.4412e+02      5.338     0.8278 0.0000e+00
      4.000     9.9783    30.3192 -9.990e-29 -9.990e-29    23.3071 3.7452e+02      4.376     0.7611 0.0000e+00
      3.000    10.0361    30.3228 -9.990e-29 -9.990e-29    23.3065 5.7297e+02      3.506     0.6234 0.0000e+00
      2.000    10.1262    30.3241 -9.990e-29 -9.990e-29    23.2998 8.1827e+02      2.659     0.5157 0.0000e+00
      1.000    10.2534    30.3290 -9.990e-29 -9.990e-29    23.2919 1.4815e+03      2.100     0.4863 0.0000e+00
