* Sea-Bird SBE19plus Data File:
* FileName = C:\data\otf\2007\ctd-07009.hex
* Software Version 1.55
* Temperature SN =  5061
* Conductivity SN =  5061
* System UpLoad Time = Aug 15 2007 15:39:23
* ds
* SeacatPlus V 1.6a  SERIAL NO. 5061    15 Aug 2007  15:31:53
* vbatt = 10.9, vlith =  8.7, ioper =  61.6 ma, ipump =  57.5 ma, 
* iext01 =  95.2 ma
* iext23 =  58.1 ma
* 
* status = not logging
* number of scans to average = 1
* samples = 153039, free = 288466, casts = 154
* mode = profile, minimum cond freq = 3000, pump delay = 60 sec
* autorun = no, ignore magnetic switch = no
* battery type = alkaline, battery cutoff =  7.3 volts
* pressure sensor = strain gauge, range = 870.0
* SBE 38 = no, Gas Tension Device = no
* Ext Volt 0 = yes, Ext Volt 1 = yes, Ext Volt 2 = yes, Ext Volt 3 = yes
* echo commands = yes
* output format = raw HEX
* S>
* 
* SeacatPlus V 1.6a  SERIAL NO. 5061    15 Aug 2007  15:32:18
* temperature:  05-oct-06
*     TA0 = 1.254184e-03
*     TA1 = 2.596730e-04
*     TA2 = 5.165612e-07
*     TA3 = 1.318931e-07
*     TOFFSET = 0.000000e+00
* conductivity:  05-oct-06
*     G = -9.978144e-01
*     H = 1.555200e-01
*     I = -4.839108e-04
*     J = 6.121100e-05
*     CF0 = 2.539936e+03
*     CPCOR = -9.570000e-08
*     CTCOR = 3.250000e-06
*     CSLOPE = 1.000000e+00
* pressure S/N = 2362539, range = 870 psia:  24-aug-06
*     PA0 = 2.171091e-01
*     PA1 = 2.647085e-03
*     PA2 = 1.419397e-11
*     PTCA0 = 5.242437e+05
*     PTCA1 = 7.545345e+00
*     PTCA2 = -1.835354e-01
*     PTCB0 = 2.537125e+01
*     PTCB1 = -1.750000e-03
*     PTCB2 = 0.000000e+00
*     PTEMPA0 = -5.753989e+01
*     PTEMPA1 = 5.235813e+01
*     PTEMPA2 = -4.015521e-02
*     POFFSET = 0.000000e+00
* volt 0: offset = -4.682842e-02, slope = 1.249147e+00
* volt 1: offset = -4.695158e-02, slope = 1.248145e+00
* volt 2: offset = -4.685263e-02, slope = 1.248783e+00
* volt 3: offset = -4.690316e-02, slope = 1.249508e+00
*     EXTFREQSF = 1.000002e+00
* dh
* cast   9 03 Jul 2007 14:23:10 samples 8156 to 9059, avg = 1, stop = mag switch
* S> 
# nquan = 10
# nvalues = 97                          
# units = specified
# name 0 = depSM: Depth [salt water, m]
# name 1 = tv290C: Temperature [ITS-90, deg C]
# name 2 = sal00: Salinity [PSU]
# name 3 = sbeox0Mg/L: Oxygen, SBE 43 [mg/l]
# name 4 = sbeox0PS: Oxygen, SBE 43 [% saturation]
# name 5 = sigma-t00: Density [sigma-t, Kg/m^3 ]
# name 6 = par: PAR/Irradiance, Biospherical/Licor
# name 7 = prdM: Pressure, Strain Gauge [db]
# name 8 = flECO-AFL: Fluorescence, Wetlab ECO-AFL/FL [mg/m^3]
# name 9 = flag: flag
# span 0 =      1.000,     51.000       
# span 1 =     8.2444,     8.7755       
# span 2 =    30.2954,    30.9159       
# span 3 =    9.33607,   13.36550       
# span 4 =   97.36857,  138.65243       
# span 5 =    23.4709,    24.0333       
# span 6 = 1.5411e+00, 1.2371e+03       
# span 7 =      1.089,     51.402       
# span 8 =     0.4508,     1.5691       
# span 9 = 0.0000e+00, 0.0000e+00       
# interval = meters: 1                  
# start_time = Jul 03 2007 14:23:10
# bad_flag = -9.990e-29
# sensor 0 = Frequency 0  temperature, 5061, 05-Oct-06
# sensor 1 = Frequency 1  conductivity, 5061, 05-Oct-06, cpcor = -9.5700e-08
# sensor 2 = Pressure Number
# sensor 3 = Extrnl Volt  0  irradiance (PAR), primary, 4751, 08/10/06
# sensor 4 = Extrnl Volt  1  Oxygen, SBE, primary, 1081, 10/24/06
# sensor 5 = Extrnl Volt  2  WET Labs, ECO_AFL
# sensor 6 = Extrnl Volt  3  userpoly 0, 0627, 10/11/06
# datcnv_date = Oct 15 2007 14:49:42, 5.37e
# datcnv_in = I:\bob d\OTF_GEM\2007\ctd-07009.hex I:\Willette\OTF\CTD\5061.con
# datcnv_skipover = 0
# filter_date = Oct 15 2007 15:02:18, 5.37e
# filter_in = I:\Willette\OTF\CTD\2007\CTD Data\ctd-07009.cnv
# filter_low_pass_tc_A = 1.000
# filter_low_pass_tc_B = 0.150
# filter_low_pass_A_vars = prdM
# filter_low_pass_B_vars =
# loopedit_date = Oct 15 2007 15:06:42, 5.37e
# loopedit_in = I:\Willette\OTF\CTD\2007\CTD Data\ctd-07009.cnv
# loopedit_minVelocity = 0.250                                                                                            
# loopedit_surfaceSoak: minDepth = 5.0, maxDepth = 20, useDeckPress = 1                                                   
# loopedit_excl_bad_scans = yes
# alignctd_date = Oct 15 2007 15:14:11, 5.37e
# alignctd_in = I:\Willette\OTF\CTD\2007\CTD Data\ctd-07009.cnv
# alignctd_adv = tv290C 0.500, sbeox0Mg/L 4.000, sbeox0PS 4.000                                                                                                                                                                      
# binavg_date = Oct 15 2007 15:18:40, 5.37e
# binavg_in = I:\Willette\OTF\CTD\2007\CTD Data\ctd-07009.cnv
# binavg_bintype = meters
# binavg_binsize = 1
# binavg_excl_bad_scans = yes
# binavg_skipover = 0
# binavg_surface_bin = no, min = 0.000, max = 0.000, value = 0.000
# file_type = ascii
*END*
      5.000     8.6794    30.3285    9.42605   98.36286    23.5077 3.4584e+01      5.056     0.7158 0.0000e+00
      6.000     8.6659    30.3610    9.40523   98.13789    23.5371 1.5502e+01      6.003     0.7238 0.0000e+00
      7.000     8.6604    30.3595    9.37161   97.78507    23.5369 7.0060e+00      7.065     0.6850 0.0000e+00
      8.000     8.6609    30.3659    9.41507   98.21937    23.5423 3.6880e+00      8.077     0.7748 0.0000e+00
      9.000     8.6577    30.3573    9.45108   98.58595    23.5357 2.3964e+00      9.062     0.7599 0.0000e+00
     10.000     8.6543    30.3651    9.42487   98.29841    23.5422 1.8644e+00     10.148     0.7645 0.0000e+00
     11.000     8.6381    30.3843    9.43106   98.36579    23.5593 1.6953e+00     11.066     0.7796 0.0000e+00
     12.000     8.6327    30.3918    9.33607   97.36857    23.5662 1.6049e+00     12.206     0.7951 0.0000e+00
     13.000     8.6296    30.3998    9.34103   97.42239    23.5733 1.5752e+00     13.068     0.7939 0.0000e+00
     14.000     8.6296    30.3950    9.37960   97.82149    23.5693 1.5595e+00     14.182     0.7936 0.0000e+00
     15.000     8.6275    30.3994    9.42258   98.26890    23.5734 1.5548e+00     15.122     0.7985 0.0000e+00
     16.000     8.6283    30.3960    9.45248   98.57476    23.5705 1.5526e+00     16.196     0.7934 0.0000e+00
     17.000     8.6259    30.3959    9.48583   98.91891    23.5706 1.5517e+00     17.157     0.8211 0.0000e+00
     18.000     8.6223    30.4092    9.51579   99.21446    23.5815 1.5514e+00     18.181     0.8090 0.0000e+00
     19.000     8.6192    30.4096    9.52784   99.32685    23.5823 1.5509e+00     19.201     0.8285 0.0000e+00
     20.000     8.6072    30.4309    9.54000   99.44047    23.6001 1.5510e+00     20.175     0.8323 0.0000e+00
     21.000     8.5932    30.4594    9.54821   99.48639    23.6246 1.5509e+00     21.225     0.9093 0.0000e+00
     22.000     8.5773    30.4911    9.55401   99.52562    23.6515 1.5510e+00     22.206     0.9190 0.0000e+00
     23.000     8.5616    30.5134    9.54924   99.43018    23.6709 1.5510e+00     23.232     0.9666 0.0000e+00
     24.000     8.5220    30.5952    9.60816   99.99088    23.7400 1.5509e+00     24.191     0.9759 0.0000e+00
     25.000     8.4990    30.6421    9.79807  101.93790    23.7807 1.5506e+00     25.274     1.0054 0.0000e+00
     26.000     8.4646    30.6875    9.95174  103.53910    23.8205 1.5507e+00     26.175     0.9857 0.0000e+00
     27.000     8.4308    30.7245   10.11308  105.23346    23.8553 1.5505e+00     27.318     1.0172 0.0000e+00
     28.000     8.4249    30.7340   10.16224  105.74304    23.8645 1.5506e+00     28.217     0.9641 0.0000e+00
     29.000     8.4305    30.7313   10.20091  106.12622    23.8623 1.5508e+00     29.347     0.9893 0.0000e+00
     30.000     8.4390    30.7248   10.20131  106.11568    23.8561 1.5508e+00     30.303     0.9665 0.0000e+00
     31.000     8.4325    30.7214   10.21831  106.15490    23.8533 1.5507e+00     31.295     0.9645 0.0000e+00
     32.000     8.4249    30.7282   10.21001  105.99916    23.8599 1.5505e+00     32.332     1.0374 0.0000e+00
     33.000     8.4108    30.7352   10.21276  106.01823    23.8664 1.5506e+00     33.321     0.9517 0.0000e+00
     34.000     8.3236    30.7854   10.20742  105.96398    23.9135 1.5505e+00     34.396     0.9948 0.0000e+00
     35.000     8.3038    30.8331   10.20891  105.97892    23.9586 1.5582e+00     35.300     0.9038 0.0000e+00
     36.000     8.2961    30.8476   10.22395  106.13403    23.9723 1.5587e+00     36.421     0.9335 0.0000e+00
     37.000     8.2961    30.8496   10.22882  106.18387    23.9740 1.5520e+00     37.305     0.9226 0.0000e+00
     38.000     8.2946    30.8554   10.23296  106.21182    23.9787 1.5504e+00     38.363     0.8991 0.0000e+00
     39.000     8.2940    30.8577   10.23504  106.22687    23.9806 1.5506e+00     39.378     0.9071 0.0000e+00
     40.000     8.2924    30.8582   10.25833  106.45652    23.9811 1.5503e+00     40.327     0.9069 0.0000e+00
     41.000     8.2829    30.8721   10.36620  107.57622    23.9930 1.5504e+00     41.346     0.9346 0.0000e+00
     42.000     8.2762    30.8818   10.58916  109.87043    24.0016 1.5506e+00     42.357     0.9443 0.0000e+00
     43.000     8.2704    30.8916   11.94974  123.97592    24.0104 1.5503e+00     43.377     1.0432 0.0000e+00
     44.000     8.2665    30.8930   13.36550  138.65243    24.0117 1.5502e+00     44.506     1.0794 0.0000e+00
     45.000     8.2547    30.9060   10.86496  112.70943    24.0237 1.5502e+00     45.405     1.1833 0.0000e+00
     46.000     8.2518    30.9087   10.15589  105.35498    24.0263 1.5500e+00     46.463     1.3059 0.0000e+00
     47.000     8.2475    30.9133   10.01027  103.84190    24.0308 1.5500e+00     47.448     1.2078 0.0000e+00
     48.000     8.2480    30.9129    9.95636  103.27906    24.0305 1.5501e+00     48.454     1.3633 0.0000e+00
     49.000     8.2486    30.9119    9.91952  102.89885    24.0296 1.5500e+00     49.439     1.3812 0.0000e+00
     50.000     8.2460    30.9127   10.05857  104.33776    24.0305 1.5501e+00     50.391     1.5449 0.0000e+00
     51.000     8.2458    30.9151    9.92285  102.92986    24.0326 1.5497e+00     51.402     1.5691 0.0000e+00
     50.000     8.2444    30.9154    9.89740  102.66942    24.0329 1.5496e+00     50.379     1.4949 0.0000e+00
     49.000     8.2448    30.9159    9.91107  102.81636    24.0333 1.5496e+00     49.489     1.5477 0.0000e+00
     48.000     8.2462    30.9156    9.91283  102.84096    24.0330 1.5494e+00     48.439     1.4424 0.0000e+00
     47.000     8.2496    30.9139    9.92875  103.00955    24.0312 1.5495e+00     47.450     1.2797 0.0000e+00
     46.000     8.2519    30.9121    9.93071  103.04114    24.0294 1.5495e+00     46.434     1.2093 0.0000e+00
     45.000     8.2564    30.9088    9.93293  103.06911    24.0263 1.5492e+00     45.453     1.1088 0.0000e+00
     44.000     8.2620    30.9019    9.94389  103.18695    24.0200 1.5491e+00     44.417     1.1582 0.0000e+00
     43.000     8.2648    30.8982    9.94471  103.21526    24.0167 1.5492e+00     43.399     1.0446 0.0000e+00
     42.000     8.2722    30.8888    9.94412  103.21796    24.0085 1.5493e+00     42.410     0.9960 0.0000e+00
     41.000     8.2854    30.8682    9.94217  103.19984    23.9904 1.5492e+00     41.384     0.9623 0.0000e+00
     40.000     8.2898    30.8580    9.94676  103.24839    23.9815 1.5489e+00     40.384     0.9341 0.0000e+00
     39.000     8.2906    30.8566    9.94913  103.27032    23.9803 1.5491e+00     39.395     0.9422 0.0000e+00
     38.000     8.2904    30.8581    9.94866  103.26447    23.9814 1.5490e+00     38.311     0.9185 0.0000e+00
     37.000     8.2891    30.8576    9.95349  103.32192    23.9812 1.5490e+00     37.357     0.8869 0.0000e+00
     36.000     8.2889    30.8580    9.94884  103.28719    23.9816 1.5489e+00     36.338     0.8825 0.0000e+00
     35.000     8.2986    30.8464    9.95393  103.35732    23.9716 1.5488e+00     35.393     0.9500 0.0000e+00
     34.000     8.3074    30.8337    9.96059  103.45141    23.9602 1.5489e+00     34.279     1.0250 0.0000e+00
     33.000     8.3200    30.8210    9.96254  103.52701    23.9486 1.5488e+00     33.311     0.9336 0.0000e+00
     32.000     8.3368    30.8097    9.96553  103.58435    23.9378 1.5488e+00     32.298     0.9599 0.0000e+00
     31.000     8.3681    30.7802    9.95929  103.53912    23.9100 1.5489e+00     31.292     0.9119 0.0000e+00
     30.000     8.3783    30.7686    9.96555  103.65092    23.8990 1.5486e+00     30.279     0.9526 0.0000e+00
     29.000     8.3940    30.7566    9.97076  103.75693    23.8879 1.5486e+00     29.303     0.9355 0.0000e+00
     28.000     8.4217    30.7292    9.97392  103.84818    23.8625 1.5485e+00     28.236     0.9148 0.0000e+00
     27.000     8.4557    30.6932    9.96554  103.76907    23.8298 1.5487e+00     27.281     0.9771 0.0000e+00
     26.000     8.4865    30.6487    9.96779  103.80573    23.7897 1.5484e+00     26.236     1.0574 0.0000e+00
     25.000     8.4872    30.6483    9.96359  103.78594    23.7886 1.5485e+00     25.216     0.9801 0.0000e+00
     24.000     8.5002    30.6351    9.94875  103.63617    23.7771 1.5486e+00     24.220     0.9725 0.0000e+00
     23.000     8.5131    30.6151    9.94049  103.57851    23.7593 1.5485e+00     23.249     0.9624 0.0000e+00
     22.000     8.5223    30.5997    9.93256  103.50947    23.7459 1.5483e+00     22.144     0.8914 0.0000e+00
     21.000     8.5568    30.5234    9.92434  103.43630    23.6820 1.5485e+00     21.187     0.8926 0.0000e+00
     20.000     8.5662    30.5003    9.81176  102.27452    23.6618 1.5484e+00     20.222     0.9093 0.0000e+00
     19.000     8.5823    30.4658    9.81878  102.36067    23.6326 1.5485e+00     19.181     0.8868 0.0000e+00
     18.000     8.5956    30.4360    9.81188  102.29037    23.6071 1.5489e+00     18.128     0.8931 0.0000e+00
     17.000     8.6059    30.4121    9.79125  102.07794    23.5866 1.5411e+00     17.180     0.8281 0.0000e+00
     16.000     8.6079    30.4070    9.79454  102.11510    23.5822 1.5463e+00     16.130     0.8255 0.0000e+00
     15.000     8.6111    30.3993    9.80050  102.17842    23.5757 1.5506e+00     15.160     0.8076 0.0000e+00
     14.000     8.6136    30.3940    9.80504  102.22588    23.5712 1.5570e+00     14.084     0.7855 0.0000e+00
     13.000     8.6141    30.3930    9.80480  102.22586    23.5703 1.5711e+00     13.132     0.7976 0.0000e+00
     12.000     8.6156    30.3902    9.80579  102.24155    23.5679 1.6102e+00     12.138     0.8174 0.0000e+00
     11.000     8.6199    30.3799    9.80832  102.27103    23.5594 1.7081e+00     11.173     0.8243 0.0000e+00
     10.000     8.6256    30.3679    9.80802  102.27225    23.5490 1.9200e+00     10.250     0.9144 0.0000e+00
      9.000     8.6317    30.3584    9.79686  102.16713    23.5407 2.5454e+00      9.021     0.7890 0.0000e+00
      8.000     8.6356    30.3526    9.78828  102.08234    23.5356 3.8944e+00      8.065     0.7646 0.0000e+00
      7.000     8.6408    30.3451    9.77879  101.99218    23.5290 7.1204e+00      7.019     0.7386 0.0000e+00
      6.000     8.6425    30.3422    9.78716  102.09932    23.5264 1.5584e+01      6.048     0.7533 0.0000e+00
      5.000     8.6522    30.3310    9.78888  102.17229    23.5165 3.8193e+01      5.062     0.7522 0.0000e+00
      4.000     8.6661    30.3179    9.80464  102.44082    23.5045 8.5861e+01      4.078     0.7262 0.0000e+00
      3.000     8.7013    30.3060    9.84390  102.94009    23.4907 1.8714e+02      2.998     0.7703 0.0000e+00
      2.000     8.7543    30.3036   10.17623  102.67679    23.4816 4.1275e+02      1.981     0.5988 0.0000e+00
      1.000     8.7755    30.2954    9.79045  102.39736    23.4709 1.2371e+03      1.089     0.4508 0.0000e+00
