* Sea-Bird SBE19plus Data File:
* FileName = C:\data\otf\2007\ctd-07146.hex
* Software Version 1.55
* Temperature SN =  5061
* Conductivity SN =  5061
* System UpLoad Time = Aug 15 2007 17:39:20
* ds
* SeacatPlus V 1.6a  SERIAL NO. 5061    15 Aug 2007  15:31:53
* vbatt = 10.9, vlith =  8.7, ioper =  61.6 ma, ipump =  57.5 ma, 
* iext01 =  95.2 ma
* iext23 =  58.1 ma
* 
* status = not logging
* number of scans to average = 1
* samples = 153039, free = 288466, casts = 154
* mode = profile, minimum cond freq = 3000, pump delay = 60 sec
* autorun = no, ignore magnetic switch = no
* battery type = alkaline, battery cutoff =  7.3 volts
* pressure sensor = strain gauge, range = 870.0
* SBE 38 = no, Gas Tension Device = no
* Ext Volt 0 = yes, Ext Volt 1 = yes, Ext Volt 2 = yes, Ext Volt 3 = yes
* echo commands = yes
* output format = raw HEX
* S>
* 
* SeacatPlus V 1.6a  SERIAL NO. 5061    15 Aug 2007  15:32:18
* temperature:  05-oct-06
*     TA0 = 1.254184e-03
*     TA1 = 2.596730e-04
*     TA2 = 5.165612e-07
*     TA3 = 1.318931e-07
*     TOFFSET = 0.000000e+00
* conductivity:  05-oct-06
*     G = -9.978144e-01
*     H = 1.555200e-01
*     I = -4.839108e-04
*     J = 6.121100e-05
*     CF0 = 2.539936e+03
*     CPCOR = -9.570000e-08
*     CTCOR = 3.250000e-06
*     CSLOPE = 1.000000e+00
* pressure S/N = 2362539, range = 870 psia:  24-aug-06
*     PA0 = 2.171091e-01
*     PA1 = 2.647085e-03
*     PA2 = 1.419397e-11
*     PTCA0 = 5.242437e+05
*     PTCA1 = 7.545345e+00
*     PTCA2 = -1.835354e-01
*     PTCB0 = 2.537125e+01
*     PTCB1 = -1.750000e-03
*     PTCB2 = 0.000000e+00
*     PTEMPA0 = -5.753989e+01
*     PTEMPA1 = 5.235813e+01
*     PTEMPA2 = -4.015521e-02
*     POFFSET = 0.000000e+00
* volt 0: offset = -4.682842e-02, slope = 1.249147e+00
* volt 1: offset = -4.695158e-02, slope = 1.248145e+00
* volt 2: offset = -4.685263e-02, slope = 1.248783e+00
* volt 3: offset = -4.690316e-02, slope = 1.249508e+00
*     EXTFREQSF = 1.000002e+00
* dh
* cast 146 29 Jul 2007 06:57:56 samples 143737 to 144480, avg = 1, stop = mag switch
* S> 
# nquan = 10
# nvalues = 103                         
# units = specified
# name 0 = depSM: Depth [salt water, m]
# name 1 = tv290C: Temperature [ITS-90, deg C]
# name 2 = sal00: Salinity [PSU]
# name 3 = sbeox0Mg/L: Oxygen, SBE 43 [mg/l]
# name 4 = sbeox0PS: Oxygen, SBE 43 [% saturation]
# name 5 = sigma-t00: Density [sigma-t, Kg/m^3 ]
# name 6 = par: PAR/Irradiance, Biospherical/Licor
# name 7 = prdM: Pressure, Strain Gauge [db]
# name 8 = flECO-AFL: Fluorescence, Wetlab ECO-AFL/FL [mg/m^3]
# name 9 = flag: flag
# span 0 =      1.000,     54.000       
# span 1 =     8.4228,    10.9621       
# span 2 =    28.9616,    31.6691       
# span 3 =    8.39027,    9.31184       
# span 4 =   90.81784,   99.05639       
# span 5 =    22.0855,    24.5944       
# span 6 = 1.5489e+00, 7.7589e+01       
# span 7 =      1.077,     54.272       
# span 8 =     0.7282,     1.1609       
# span 9 = 0.0000e+00, 0.0000e+00       
# interval = meters: 1                  
# start_time = Jul 29 2007 06:57:56
# bad_flag = -9.990e-29
# sensor 0 = Frequency 0  temperature, 5061, 05-Oct-06
# sensor 1 = Frequency 1  conductivity, 5061, 05-Oct-06, cpcor = -9.5700e-08
# sensor 2 = Pressure Number
# sensor 3 = Extrnl Volt  0  irradiance (PAR), primary, 4751, 08/10/06
# sensor 4 = Extrnl Volt  1  Oxygen, SBE, primary, 1081, 10/24/06
# sensor 5 = Extrnl Volt  2  WET Labs, ECO_AFL
# sensor 6 = Extrnl Volt  3  userpoly 0, 0627, 10/11/06
# datcnv_date = Oct 15 2007 14:49:54, 5.37e
# datcnv_in = I:\bob d\OTF_GEM\2007\ctd-07146.hex I:\Willette\OTF\CTD\5061.con
# datcnv_skipover = 0
# filter_date = Oct 15 2007 15:02:43, 5.37e
# filter_in = I:\Willette\OTF\CTD\2007\CTD Data\ctd-07146.cnv
# filter_low_pass_tc_A = 1.000
# filter_low_pass_tc_B = 0.150
# filter_low_pass_A_vars = prdM
# filter_low_pass_B_vars =
# loopedit_date = Oct 15 2007 15:07:01, 5.37e
# loopedit_in = I:\Willette\OTF\CTD\2007\CTD Data\ctd-07146.cnv
# loopedit_minVelocity = 0.250                                                                                            
# loopedit_surfaceSoak: minDepth = 5.0, maxDepth = 20, useDeckPress = 1                                                   
# loopedit_excl_bad_scans = yes
# alignctd_date = Oct 15 2007 15:14:25, 5.37e
# alignctd_in = I:\Willette\OTF\CTD\2007\CTD Data\ctd-07146.cnv
# alignctd_adv = tv290C 0.500, sbeox0Mg/L 4.000, sbeox0PS 4.000                                                                                                                                                                      
# binavg_date = Oct 15 2007 15:18:53, 5.37e
# binavg_in = I:\Willette\OTF\CTD\2007\CTD Data\ctd-07146.cnv
# binavg_bintype = meters
# binavg_binsize = 1
# binavg_excl_bad_scans = yes
# binavg_skipover = 0
# binavg_surface_bin = no, min = 0.000, max = 0.000, value = 0.000
# file_type = ascii
*END*
      5.000    10.8856    29.0128    8.39027   90.81784    22.1352 1.6176e+01      5.150     1.1235 0.0000e+00
      6.000    10.8447    29.0140    8.45508   91.47180    22.1405 1.1770e+01      6.055     1.1166 0.0000e+00
      7.000    10.7506    29.0621    8.48256   91.72462    22.1889 9.0762e+00      7.046     1.0440 0.0000e+00
      8.000    10.6322    29.1958    8.49860   91.86696    22.3142 6.2836e+00      8.076     0.9581 0.0000e+00
      9.000    10.5938    29.2523    8.52831   92.16328    22.3693 4.7621e+00      9.079     0.9392 0.0000e+00
     10.000    10.5619    29.2788    8.50595   91.89908    22.3955 3.7670e+00     10.104     0.9615 0.0000e+00
     11.000    10.5415    29.3019    8.49858   91.70047    22.4178 3.0899e+00     11.089     0.9604 0.0000e+00
     12.000    10.5233    29.3140    8.57519   92.40952    22.4301 2.6357e+00     12.050     0.9671 0.0000e+00
     13.000    10.5057    29.3406    8.53360   91.84727    22.4540 2.2801e+00     13.187     0.9652 0.0000e+00
     14.000    10.4428    29.3436    8.62285   92.41977    22.4608 2.0745e+00     14.128     0.9714 0.0000e+00
     15.000    10.3562    29.4226    8.67036   92.77052    22.5382 1.9117e+00     15.160     0.9389 0.0000e+00
     16.000    10.2886    29.4904    8.68771   92.83656    22.6020 1.8081e+00     16.331     0.8816 0.0000e+00
     17.000    10.0749    29.6272    8.74367   93.22144    22.7221 1.7417e+00     17.169     0.8415 0.0000e+00
     18.000     9.9062    29.9123    8.78088   93.35897    22.9861 1.6882e+00     18.147     0.8172 0.0000e+00
     19.000     9.8595    30.0093    8.80004   93.31935    23.0778 1.6514e+00     19.254     0.8557 0.0000e+00
     20.000     9.7695    30.0549    8.83329   93.35641    23.1186 1.6258e+00     20.205     0.8453 0.0000e+00
     21.000     9.6083    30.2352    8.83626   93.14675    23.2817 1.6055e+00     21.190     0.8425 0.0000e+00
     22.000     9.4223    30.4469    8.81497   92.73967    23.4747 1.5910e+00     22.244     0.8095 0.0000e+00
     23.000     9.2895    30.6076    8.84250   92.88828    23.6246 1.5807e+00     23.227     0.7757 0.0000e+00
     24.000     9.0709    30.8071    8.86889   93.07420    23.8046 1.5740e+00     24.202     0.7715 0.0000e+00
     25.000     8.8837    31.0773    8.85863   92.87996    24.0529 1.5686e+00     25.286     0.7411 0.0000e+00
     26.000     8.7662    31.2172    8.87126   92.95710    24.1824 1.5650e+00     26.301     0.7389 0.0000e+00
     27.000     8.6749    31.3300    8.86117   92.81282    24.2857 1.5616e+00     27.218     0.7583 0.0000e+00
     28.000     8.6022    31.4456    8.85574   92.72429    24.3904 1.5593e+00     28.233     0.8059 0.0000e+00
     29.000     8.5448    31.5120    8.90371   93.22155    24.4516 1.5578e+00     29.244     0.8366 0.0000e+00
     30.000     8.4961    31.5782    8.92630   93.47015    24.5116 1.5569e+00     30.210     0.8436 0.0000e+00
     31.000     8.4654    31.6368    8.86564   92.81348    24.5643 1.5557e+00     31.361     0.9167 0.0000e+00
     32.000     8.4489    31.6365    8.88619   93.03498    24.5670 1.5551e+00     32.323     0.9097 0.0000e+00
     33.000     8.4430    31.6485    8.88894   93.06859    24.5782 1.5540e+00     33.219     0.8944 0.0000e+00
     34.000     8.4478    31.6691    8.84326   92.57077    24.5943 1.5533e+00     34.371     0.8893 0.0000e+00
     35.000     8.4406    31.6442    8.87375   92.86904    24.5747 1.5530e+00     35.299     0.8970 0.0000e+00
     36.000     8.4379    31.6609    8.93455   93.48969    24.5890 1.5523e+00     36.234     0.9176 0.0000e+00
     37.000     8.4452    31.6687    9.04431   94.63408    24.5944 1.5516e+00     37.468     0.9573 0.0000e+00
     38.000     8.4358    31.6430    9.09525   95.16803    24.5747 1.5509e+00     38.357     0.9782 0.0000e+00
     39.000     8.4320    31.6284    9.12900   95.52053    24.5641 1.5511e+00     39.343     0.9737 0.0000e+00
     40.000     8.4279    31.6152    9.15664   95.80840    24.5545 1.5512e+00     40.357     0.9516 0.0000e+00
     41.000     8.4281    31.6142    9.18009   96.05305    24.5539 1.5508e+00     41.358     0.9639 0.0000e+00
     42.000     8.4282    31.6132    9.19977   96.25882    24.5531 1.5510e+00     42.379     0.9822 0.0000e+00
     43.000     8.4279    31.6126    9.21520   96.41977    24.5526 1.5507e+00     43.426     0.9998 0.0000e+00
     44.000     8.4274    31.6121    9.22607   96.53312    24.5523 1.5501e+00     44.452     0.9952 0.0000e+00
     45.000     8.4272    31.6121    9.23466   96.62298    24.5523 1.5503e+00     45.380     0.9756 0.0000e+00
     46.000     8.4272    31.6122    9.23674   96.64440    24.5525 1.5504e+00     46.385     0.9799 0.0000e+00
     47.000     8.4272    31.6112    9.24583   96.73913    24.5517 1.5503e+00     47.537     0.9973 0.0000e+00
     48.000     8.4271    31.6115    9.24670   96.74822    24.5519 1.5505e+00     48.387     1.0111 0.0000e+00
     49.000     8.4271    31.6110    9.25393   96.82410    24.5515 1.5500e+00     49.493     0.9904 0.0000e+00
     50.000     8.4269    31.6106    9.26015   96.88943    24.5513 1.5499e+00     50.507     0.9933 0.0000e+00
     51.000     8.4271    31.6105    9.26608   96.95153    24.5511 1.5501e+00     51.490     0.9815 0.0000e+00
     52.000     8.4271    31.6103    9.26378   96.92799    24.5510 1.5502e+00     52.491     0.9684 0.0000e+00
     53.000     8.4272    31.6104    9.27240   97.01703    24.5510 1.5500e+00     53.331     0.9898 0.0000e+00
     54.000     8.4284    31.6104    9.28271   97.12517    24.5510 1.5521e+00     54.272     0.9962 0.0000e+00
     53.000     8.4300    31.6087    9.29179   97.22225    24.5492 1.5498e+00     53.460     0.9913 0.0000e+00
     52.000     8.4282    31.6093    9.29476   97.25021    24.5501 1.5490e+00     52.436     1.0039 0.0000e+00
     51.000     8.4285    31.6095    9.29138   97.21570    24.5501 1.5490e+00     51.497     1.0281 0.0000e+00
     50.000     8.4268    31.6094    9.28942   97.19381    24.5503 1.5497e+00     50.468     1.0493 0.0000e+00
     49.000     8.4274    31.6103    9.29877   97.29279    24.5509 1.5497e+00     49.496     1.0613 0.0000e+00
     48.000     8.4266    31.6097    9.30269   97.33234    24.5506 1.5494e+00     48.452     1.0595 0.0000e+00
     47.000     8.4271    31.6099    9.30780   97.38517    24.5507 1.5493e+00     47.474     1.0305 0.0000e+00
     46.000     8.4264    31.6094    9.30805   97.38744    24.5504 1.5492e+00     46.434     1.0804 0.0000e+00
     45.000     8.4261    31.6097    9.30569   97.36094    24.5506 1.5493e+00     45.431     1.0418 0.0000e+00
     44.000     8.4260    31.6105    9.30745   97.37971    24.5513 1.5490e+00     44.419     1.0118 0.0000e+00
     43.000     8.4249    31.6105    9.31184   97.42476    24.5514 1.5494e+00     43.419     1.0407 0.0000e+00
     42.000     8.4253    31.6102    9.30963   97.40213    24.5512 1.5492e+00     42.396     1.0268 0.0000e+00
     41.000     8.4249    31.6099    9.30788   97.38103    24.5510 1.5492e+00     41.411     1.0414 0.0000e+00
     40.000     8.4250    31.6111    9.30633   97.36509    24.5519 1.5492e+00     40.364     1.0457 0.0000e+00
     39.000     8.4232    31.6117    9.30715   97.37216    24.5526 1.5491e+00     39.353     0.9994 0.0000e+00
     38.000     8.4235    31.6120    9.30749   97.37570    24.5528 1.5489e+00     38.383     1.0146 0.0000e+00
     37.000     8.4229    31.6114    9.30521   97.35276    24.5525 1.5493e+00     37.345     1.0159 0.0000e+00
     36.000     8.4228    31.6116    9.30421   97.34353    24.5526 1.5496e+00     36.384     0.9624 0.0000e+00
     35.000     8.4234    31.6115    9.30396   97.34436    24.5525 1.5499e+00     35.275     1.0194 0.0000e+00
     34.000     8.4245    31.6097    9.30586   97.37193    24.5509 1.5501e+00     34.350     0.9930 0.0000e+00
     33.000     8.4268    31.6070    9.30870   97.41477    24.5485 1.5512e+00     33.305     0.9594 0.0000e+00
     32.000     8.4308    31.6038    9.30394   97.36790    24.5457 1.5523e+00     32.295     0.9426 0.0000e+00
     31.000     8.4402    31.5915    9.30668   97.45204    24.5346 1.5531e+00     31.307     0.9206 0.0000e+00
     30.000     8.4437    31.5894    9.30772   97.55567    24.5326 1.5543e+00     30.237     0.9160 0.0000e+00
     29.000     8.4746    31.5610    9.30312   97.55734    24.5074 1.5556e+00     29.273     0.8956 0.0000e+00
     28.000     8.5278    31.4996    9.29160   97.54421    24.4518 1.5572e+00     28.300     0.8821 0.0000e+00
     27.000     8.5754    31.4399    9.28444   97.61774    24.3973 1.5597e+00     27.175     0.8613 0.0000e+00
     26.000     8.6360    31.3811    9.29124   97.82142    24.3442 1.5623e+00     26.303     0.8386 0.0000e+00
     25.000     8.7357    31.2662    9.29637   98.19502    24.2401 1.5660e+00     25.191     0.8072 0.0000e+00
     24.000     8.8321    31.1601    9.29765   98.49231    24.1435 1.5713e+00     24.254     0.7484 0.0000e+00
     23.000     9.0337    30.9561    9.28168   98.47822    23.9584 1.5791e+00     23.212     0.7282 0.0000e+00
     22.000     9.2370    30.7079    9.26422   98.60702    23.7300 1.5895e+00     22.184     0.7443 0.0000e+00
     21.000     9.3393    30.5791    9.24702   98.71443    23.6109 1.6030e+00     21.116     0.7689 0.0000e+00
     20.000     9.5011    30.4239    9.23962   98.69214    23.4708 1.6229e+00     20.261     0.7638 0.0000e+00
     19.000     9.7001    30.1799    9.22848   98.66610    23.2458 1.6486e+00     19.108     0.7952 0.0000e+00
     18.000     9.7815    30.0642    9.21702   98.78419    23.1389 1.6866e+00     18.138     0.8008 0.0000e+00
     17.000     9.8246    30.0118    9.21433   98.93918    23.0902 1.7375e+00     17.189     0.8085 0.0000e+00
     16.000     9.9073    29.9398    9.19777   98.97272    23.0256 1.8076e+00     16.161     0.7928 0.0000e+00
     15.000    10.1344    29.6854    9.19307   99.04620    22.7953 1.9107e+00     15.094     0.8181 0.0000e+00
     14.000    10.2025    29.5786    9.18353   99.05639    22.6963 2.0668e+00     14.290     0.8769 0.0000e+00
     13.000    10.3911    29.3813    9.16738   98.99531    22.5095 2.2945e+00     12.977     0.9452 0.0000e+00
     12.000    10.4372    29.3703    9.15362   98.86251    22.4938 2.6361e+00     12.141     0.9004 0.0000e+00
     11.000    10.4725    29.3243    9.14160   98.77169    22.4482 3.0932e+00     11.019     0.9254 0.0000e+00
     10.000    10.4894    29.3091    9.12774   98.66590    22.4347 3.8456e+00     10.120     0.9373 0.0000e+00
      9.000    10.5132    29.2956    9.11494   98.63982    22.4202 4.7633e+00      9.074     0.9417 0.0000e+00
      8.000    10.5301    29.2820    9.11647   98.79004    22.4067 6.1512e+00      8.140     0.9138 0.0000e+00
      7.000    10.5767    29.2594    9.11848   98.97324    22.3838 8.2599e+00      7.106     0.9151 0.0000e+00
      6.000    10.7006    29.1408    9.10663   98.94793    22.2734 1.1260e+01      6.060     0.9148 0.0000e+00
      5.000    10.8032    29.0490    9.09816   98.93770    22.1833 1.5394e+01      5.036     0.9401 0.0000e+00
      4.000    10.8531    29.0171    9.08686   98.88911    22.1480 2.0795e+01      4.053     0.9788 0.0000e+00
      3.000    10.8960    29.0093    9.07961   98.85113    22.1343 2.7240e+01      2.979     1.0413 0.0000e+00
      2.000    10.9294    28.9990    9.04375   98.42918    22.1215 3.5874e+01      2.074     1.0580 0.0000e+00
      1.000    10.9621    28.9616    8.94552   97.27636    22.0855 7.7589e+01      1.077     1.1609 0.0000e+00
