* Sea-Bird SBE19plus Data File:
* FileName = C:\data\otf\2007\ctd-07077.hex
* Software Version 1.55
* Temperature SN =  5061
* Conductivity SN =  5061
* System UpLoad Time = Aug 15 2007 16:18:50
* ds
* SeacatPlus V 1.6a  SERIAL NO. 5061    15 Aug 2007  15:31:53
* vbatt = 10.9, vlith =  8.7, ioper =  61.6 ma, ipump =  57.5 ma, 
* iext01 =  95.2 ma
* iext23 =  58.1 ma
* 
* status = not logging
* number of scans to average = 1
* samples = 153039, free = 288466, casts = 154
* mode = profile, minimum cond freq = 3000, pump delay = 60 sec
* autorun = no, ignore magnetic switch = no
* battery type = alkaline, battery cutoff =  7.3 volts
* pressure sensor = strain gauge, range = 870.0
* SBE 38 = no, Gas Tension Device = no
* Ext Volt 0 = yes, Ext Volt 1 = yes, Ext Volt 2 = yes, Ext Volt 3 = yes
* echo commands = yes
* output format = raw HEX
* S>
* 
* SeacatPlus V 1.6a  SERIAL NO. 5061    15 Aug 2007  15:32:18
* temperature:  05-oct-06
*     TA0 = 1.254184e-03
*     TA1 = 2.596730e-04
*     TA2 = 5.165612e-07
*     TA3 = 1.318931e-07
*     TOFFSET = 0.000000e+00
* conductivity:  05-oct-06
*     G = -9.978144e-01
*     H = 1.555200e-01
*     I = -4.839108e-04
*     J = 6.121100e-05
*     CF0 = 2.539936e+03
*     CPCOR = -9.570000e-08
*     CTCOR = 3.250000e-06
*     CSLOPE = 1.000000e+00
* pressure S/N = 2362539, range = 870 psia:  24-aug-06
*     PA0 = 2.171091e-01
*     PA1 = 2.647085e-03
*     PA2 = 1.419397e-11
*     PTCA0 = 5.242437e+05
*     PTCA1 = 7.545345e+00
*     PTCA2 = -1.835354e-01
*     PTCB0 = 2.537125e+01
*     PTCB1 = -1.750000e-03
*     PTCB2 = 0.000000e+00
*     PTEMPA0 = -5.753989e+01
*     PTEMPA1 = 5.235813e+01
*     PTEMPA2 = -4.015521e-02
*     POFFSET = 0.000000e+00
* volt 0: offset = -4.682842e-02, slope = 1.249147e+00
* volt 1: offset = -4.695158e-02, slope = 1.248145e+00
* volt 2: offset = -4.685263e-02, slope = 1.248783e+00
* volt 3: offset = -4.690316e-02, slope = 1.249508e+00
*     EXTFREQSF = 1.000002e+00
* dh
* cast  77 15 Jul 2007 12:08:17 samples 50189 to 50431, avg = 4, stop = mag switch
* S> 
# nquan = 10
# nvalues = 124                         
# units = specified
# name 0 = depSM: Depth [salt water, m]
# name 1 = tv290C: Temperature [ITS-90, deg C]
# name 2 = sal00: Salinity [PSU]
# name 3 = sbeox0Mg/L: Oxygen, SBE 43 [mg/l]
# name 4 = sbeox0PS: Oxygen, SBE 43 [% saturation]
# name 5 = sigma-t00: Density [sigma-t, Kg/m^3 ]
# name 6 = par: PAR/Irradiance, Biospherical/Licor
# name 7 = prdM: Pressure, Strain Gauge [db]
# name 8 = flECO-AFL: Fluorescence, Wetlab ECO-AFL/FL [mg/m^3]
# name 9 = flag: flag
# span 0 =      1.000,     64.000       
# span 1 =     8.4668,     9.0025       
# span 2 =    31.2414,    31.6465       
# span 3 =    9.01315,   11.47953       
# span 4 =   94.74120,  102.93438       
# span 5 =    24.1870,    24.5736       
# span 6 = 1.5431e+00, 1.0231e+03       
# span 7 =      1.880,     63.233       
# span 8 =     0.4538,     1.6883       
# span 9 = 0.0000e+00, 0.0000e+00       
# interval = meters: 1                  
# start_time = Jul 15 2007 12:08:17
# bad_flag = -9.990e-29
# sensor 0 = Frequency 0  temperature, 5061, 05-Oct-06
# sensor 1 = Frequency 1  conductivity, 5061, 05-Oct-06, cpcor = -9.5700e-08
# sensor 2 = Pressure Number
# sensor 3 = Extrnl Volt  0  irradiance (PAR), primary, 4751, 08/10/06
# sensor 4 = Extrnl Volt  1  Oxygen, SBE, primary, 1081, 10/24/06
# sensor 5 = Extrnl Volt  2  WET Labs, ECO_AFL
# sensor 6 = Extrnl Volt  3  userpoly 0, 0627, 10/11/06
# datcnv_date = Oct 15 2007 14:49:46, 5.37e
# datcnv_in = I:\bob d\OTF_GEM\2007\ctd-07077.hex I:\Willette\OTF\CTD\5061.con
# datcnv_skipover = 0
# filter_date = Oct 15 2007 15:02:26, 5.37e
# filter_in = I:\Willette\OTF\CTD\2007\CTD Data\ctd-07077.cnv
# filter_low_pass_tc_A = 1.000
# filter_low_pass_tc_B = 0.150
# filter_low_pass_A_vars = prdM
# filter_low_pass_B_vars =
# loopedit_date = Oct 15 2007 15:06:48, 5.37e
# loopedit_in = I:\Willette\OTF\CTD\2007\CTD Data\ctd-07077.cnv
# loopedit_minVelocity = 0.250                                                                                            
# loopedit_surfaceSoak: minDepth = 5.0, maxDepth = 20, useDeckPress = 1                                                   
# loopedit_excl_bad_scans = yes
# alignctd_date = Oct 15 2007 15:14:16, 5.37e
# alignctd_in = I:\Willette\OTF\CTD\2007\CTD Data\ctd-07077.cnv
# alignctd_adv = tv290C 0.500, sbeox0Mg/L 4.000, sbeox0PS 4.000                                                                                                                                                                      
# binavg_date = Oct 15 2007 15:18:44, 5.37e
# binavg_in = I:\Willette\OTF\CTD\2007\CTD Data\ctd-07077.cnv
# binavg_bintype = meters
# binavg_binsize = 1
# binavg_excl_bad_scans = yes
# binavg_skipover = 0
# binavg_surface_bin = no, min = 0.000, max = 0.000, value = 0.000
# file_type = ascii
*END*
      4.000     8.8698    31.2652    9.02642   94.91264    24.2030 2.8774e+02      4.793     0.5001 0.0000e+00
      5.000     8.8454    31.2933    9.01315   94.74120    24.2324 2.2351e+02      5.490     0.6146 0.0000e+00
      6.000     8.8251    31.3178    9.08273   95.42445    24.2564 1.7061e+02      6.255     0.6809 0.0000e+00
      7.000     8.8071    31.3348    9.16266   96.23111    24.2739 1.2988e+02      7.073     0.7763 0.0000e+00
      8.000     8.7973    31.3622    9.18071   96.40543    24.2989 9.9297e+01      8.098     0.9231 0.0000e+00
      9.000     8.7724    31.3764    9.21184   96.71077    24.3124 7.7018e+01      9.383     0.8979 0.0000e+00
     10.000     8.7373    31.3820    9.23771   96.97288    24.3197 5.9895e+01     10.457     0.8788 0.0000e+00
     11.000     8.6979    31.3949    9.29958   97.58518    24.3324 4.6412e+01     11.489     0.8487 0.0000e+00
     12.000     8.7009    31.4224    9.30645   97.63233    24.3597 3.7013e+01     12.387     0.9630 0.0000e+00
     13.000     8.6967    31.4540    9.38036   98.40027    24.3890 2.9370e+01     13.219     0.9230 0.0000e+00
     14.000     8.6875    31.4460    9.50403   99.69372    24.3820 2.3968e+01     14.249     0.9050 0.0000e+00
     15.000     8.6852    31.4507    9.56371  100.29887    24.3865 1.9559e+01     15.123     0.9016 0.0000e+00
     16.000     8.6688    31.4652    9.61560  100.82775    24.3991 1.5619e+01     16.204     0.9401 0.0000e+00
     17.000     8.6296    31.4580    9.65333  101.22125    24.3935 1.2798e+01     17.392     0.9715 0.0000e+00
     18.000     8.6185    31.4884    9.66901  101.38402    24.4221 1.0654e+01     18.412     0.9256 0.0000e+00
     19.000     8.6082    31.5083    9.68451  101.54874    24.4410 8.9191e+00     19.396     0.9614 0.0000e+00
     20.000     8.5998    31.5222    9.69661  101.67662    24.4540 7.4394e+00     20.413     0.9777 0.0000e+00
     21.000     8.5934    31.5294    9.70468  101.76075    24.4610 6.3377e+00     21.369     0.9610 0.0000e+00
     22.000     8.5907    31.5356    9.71513  101.86615    24.4670 5.4278e+00     22.275     0.9722 0.0000e+00
     23.000     8.5736    31.5421    9.72171  101.92718    24.4730 4.6690e+00     23.259     0.9938 0.0000e+00
     24.000     8.5629    31.5427    9.72753  101.98881    24.4738 4.0948e+00     24.123     0.9950 0.0000e+00
     25.000     8.5563    31.5588    9.73678  102.08901    24.4886 3.6009e+00     25.014     0.9908 0.0000e+00
     26.000     8.5535    31.5604    9.74624  102.17980    24.4920 3.1937e+00     26.066     1.0040 0.0000e+00
     27.000     8.5463    31.5653    9.75653  102.28517    24.4970 2.8716e+00     27.259     1.0411 0.0000e+00
     28.000     8.5261    31.5660    9.75509  102.26442    24.4976 2.6287e+00     28.305     1.0489 0.0000e+00
     29.000     8.5274    31.5802    9.76127  102.32554    24.5109 2.4345e+00     29.343     1.0340 0.0000e+00
     30.000     8.5265    31.5891    9.77010  102.41844    24.5191 2.2755e+00     30.392     1.0351 0.0000e+00
     31.000     8.5264    31.5913    9.77843  102.50422    24.5212 2.1363e+00     31.417     1.0319 0.0000e+00
     32.000     8.5285    31.5923    9.77447  102.45177    24.5222 2.0269e+00     32.433     1.0105 0.0000e+00
     33.000     8.5283    31.5923    9.78550  102.56829    24.5223 1.9383e+00     33.402     1.0454 0.0000e+00
     34.000     8.5277    31.5896    9.78712  102.58718    24.5197 1.8659e+00     34.423     1.0989 0.0000e+00
     35.000     8.5237    31.5905    9.77798  102.47184    24.5205 1.8085e+00     35.448     1.0604 0.0000e+00
     36.000     8.5192    31.5910    9.78533  102.55256    24.5210 1.7614e+00     36.270     1.0053 0.0000e+00
     37.000     8.5225    31.5957    9.79089  102.60440    24.5253 1.7182e+00     37.409     1.0511 0.0000e+00
     38.000     8.5238    31.5993    9.79045  102.59458    24.5289 1.6902e+00     38.195     1.0610 0.0000e+00
     39.000     8.5157    31.5957    9.78213  102.50467    24.5255 1.6618e+00     39.188     1.0124 0.0000e+00
     40.000     8.5152    31.5985    9.78837  102.56593    24.5280 1.6413e+00     40.430     0.9975 0.0000e+00
     41.000     8.5120    31.6013    9.79486  102.63911    24.5306 1.6250e+00     41.418     1.0344 0.0000e+00
     42.000     8.5113    31.6042    9.79705  102.66120    24.5334 1.6099e+00     42.449     1.0491 0.0000e+00
     43.000     8.5112    31.6070    9.79878  102.67978    24.5360 1.5980e+00     43.600     1.0567 0.0000e+00
     44.000     8.5103    31.6069    9.79055  102.58458    24.5359 1.5890e+00     44.439     1.0367 0.0000e+00
     45.000     8.5046    31.6073    9.80046  102.68755    24.5362 1.5805e+00     45.357     1.0393 0.0000e+00
     46.000     8.5046    31.6080    9.81313  102.80646    24.5369 1.5740e+00     46.518     1.0406 0.0000e+00
     47.000     8.5055    31.6133    9.80936  102.76540    24.5420 1.5693e+00     47.320     1.0590 0.0000e+00
     48.000     8.4981    31.6131    9.80621  102.73377    24.5417 1.5650e+00     48.084     1.1225 0.0000e+00
     49.000     8.4966    31.6121    9.80694  102.74113    24.5409 1.5613e+00     49.195     1.1255 0.0000e+00
     50.000     8.4934    31.6205    9.80963  102.76209    24.5488 1.5583e+00     50.112     1.0135 0.0000e+00
     51.000     8.4901    31.6201    9.80879  102.74996    24.5484 1.5554e+00     50.978     1.0915 0.0000e+00
     52.000     8.4870    31.6242    9.81567  102.81805    24.5524 1.5538e+00     52.124     1.1112 0.0000e+00
     53.000     8.4873    31.6273    9.81059  102.76848    24.5552 1.5524e+00     53.423     1.1198 0.0000e+00
     54.000     8.4890    31.6291    9.81618  102.82846    24.5570 1.5507e+00     54.454     1.1528 0.0000e+00
     55.000     8.4888    31.6263    9.81537  102.81740    24.5543 1.5494e+00     55.471     1.1534 0.0000e+00
     56.000     8.4826    31.6275    9.80999  102.75642    24.5555 1.5444e+00     56.500     1.0999 0.0000e+00
     57.000     8.4833    31.6265    9.82214  102.88509    24.5546 1.5447e+00     57.408     1.1375 0.0000e+00
     58.000     8.4754    31.6316    9.80229  102.69006    24.5594 1.5466e+00     58.317     1.1415 0.0000e+00
     59.000     8.4756    31.6358    9.79672  102.63188    24.5634 1.5469e+00     59.171     1.1700 0.0000e+00
     60.000     8.4754    31.6386    9.80036  102.67048    24.5661 1.5466e+00     59.945     1.1393 0.0000e+00
     61.000     8.4712    31.6376    9.80204  102.68797    24.5652 1.5463e+00     60.793     1.1158 0.0000e+00
     62.000     8.4694    31.6380    9.81069  102.78197    24.5656 1.5463e+00     61.437     1.1703 0.0000e+00
     63.000     8.4668    31.6424    9.78814  102.54494    24.5698 1.5464e+00     62.205     1.1582 0.0000e+00
     64.000     8.4714    31.6465    9.80210  102.69021    24.5736 1.5431e+00     63.233     1.2647 0.0000e+00
     63.000     8.4729    31.6447    9.81054  102.78000    24.5714 1.5534e+00     62.575     1.1920 0.0000e+00
     62.000     8.4740    31.6420    9.81225  102.80982    24.5690 1.5487e+00     61.933     1.2429 0.0000e+00
     61.000     8.4761    31.6401    9.80442  102.73506    24.5675 1.5481e+00     61.132     1.1842 0.0000e+00
     60.000     8.4744    31.6393    9.80830  102.78005    24.5665 1.5481e+00     60.313     1.2216 0.0000e+00
     59.000     8.4746    31.6399    9.81269  102.84011    24.5672 1.5480e+00     59.361     1.3258 0.0000e+00
     58.000     8.4765    31.6400    9.80742  102.78284    24.5673 1.5484e+00     58.496     1.2360 0.0000e+00
     57.000     8.4754    31.6384    9.80577  102.76369    24.5658 1.5486e+00     57.569     1.2541 0.0000e+00
     56.000     8.4750    31.6390    9.80640  102.77164    24.5663 1.5492e+00     56.603     1.1876 0.0000e+00
     55.000     8.4758    31.6391    9.80872  102.79277    24.5665 1.5499e+00     55.580     1.1766 0.0000e+00
     54.000     8.4820    31.6390    9.81163  102.83015    24.5665 1.5508e+00     54.662     1.2419 0.0000e+00
     53.000     8.4867    31.6335    9.81798  102.91525    24.5611 1.5523e+00     53.615     1.2188 0.0000e+00
     52.000     8.4899    31.6283    9.81794  102.91317    24.5562 1.5537e+00     52.591     1.2915 0.0000e+00
     51.000     8.4976    31.6259    9.81278  102.85539    24.5540 1.5557e+00     51.660     1.2102 0.0000e+00
     50.000     8.4944    31.6190    9.80675  102.80378    24.5475 1.5580e+00     50.761     1.1973 0.0000e+00
     49.000     8.4953    31.6197    9.79783  102.73505    24.5483 1.5602e+00     49.349     1.1093 0.0000e+00
     48.000     8.4964    31.6220    9.80573  102.82162    24.5503 1.5640e+00     48.349     1.1955 0.0000e+00
     47.000     8.5053    31.6198    9.80871  102.84893    24.5482 1.5681e+00     47.323     1.2231 0.0000e+00
     46.000     8.5075    31.6118    9.80616  102.81721    24.5407 1.5735e+00     46.399     1.2240 0.0000e+00
     45.000     8.5054    31.6089    9.80958  102.85133    24.5379 1.5798e+00     45.328     1.3122 0.0000e+00
     44.000     8.5103    31.6094    9.80597  102.82600    24.5385 1.5879e+00     44.450     1.1550 0.0000e+00
     43.000     8.5205    31.6056    9.80591  102.83421    24.5349 1.5982e+00     43.493     1.2105 0.0000e+00
     42.000     8.5268    31.5959    9.80955  102.87597    24.5258 1.6098e+00     42.458     1.1424 0.0000e+00
     41.000     8.5296    31.5902    9.80836  102.86634    24.5204 1.6246e+00     41.421     1.0910 0.0000e+00
     40.000     8.5267    31.5880    9.80935  102.88185    24.5183 1.6424e+00     40.423     1.1200 0.0000e+00
     39.000     8.5234    31.5909    9.81329  102.93438    24.5211 1.6638e+00     39.382     1.0861 0.0000e+00
     38.000     8.5244    31.5938    9.81117  102.91802    24.5239 1.6897e+00     38.311     1.1639 0.0000e+00
     37.000     8.5342    31.5899    9.80544  102.85966    24.5203 1.7223e+00     37.289     1.1405 0.0000e+00
     36.000     8.5377    31.5832    9.80249  102.83658    24.5140 1.7626e+00     36.285     1.1255 0.0000e+00
     35.000     8.5378    31.5795    9.80484  102.88555    24.5105 1.8102e+00     35.262     1.0622 0.0000e+00
     34.000     8.5411    31.5794    9.80510  102.90294    24.5105 1.8688e+00     34.211     1.0858 0.0000e+00
     33.000     8.5454    31.5763    9.79811  102.83645    24.5075 1.9409e+00     33.245     1.0681 0.0000e+00
     32.000     8.5509    31.5721    9.79483  102.80500    24.5038 2.0273e+00     32.191     1.0915 0.0000e+00
     31.000     8.5529    31.5659    9.78542  102.71098    24.4979 2.1330e+00     31.269     1.0098 0.0000e+00
     30.000     8.5537    31.5643    9.78443  102.70841    24.4964 2.2672e+00     30.346     1.0227 0.0000e+00
     29.000     8.5569    31.5628    9.79125  102.78849    24.4950 2.4341e+00     29.269     0.9940 0.0000e+00
     28.000     8.5679    31.5599    9.79707  102.85134    24.4924 2.6359e+00     28.301     1.0463 0.0000e+00
     27.000     8.5817    31.5462    9.79454  102.84396    24.4800 2.8832e+00     27.234     1.0911 0.0000e+00
     26.000     8.5861    31.5331    9.79388  102.85008    24.4678 3.1952e+00     26.268     1.0108 0.0000e+00
     25.000     8.5886    31.5269    9.78868  102.82850    24.4621 3.5791e+00     25.106     1.4792 0.0000e+00
     24.000     8.5913    31.5254    9.78658  102.83433    24.4606 4.0548e+00     24.115     1.6883 0.0000e+00
     23.000     8.5956    31.5223    9.78419  102.82737    24.4578 4.6499e+00     23.143     1.6230 0.0000e+00
     22.000     8.6026    31.5180    9.77786  102.77912    24.4538 5.3625e+00     21.978     1.6091 0.0000e+00
     21.000     8.6009    31.5118    9.77016  102.71616    24.4481 6.2842e+00     21.110     1.5004 0.0000e+00
     20.000     8.6090    31.5118    9.77061  102.74465    24.4481 7.4435e+00     20.102     1.2691 0.0000e+00
     19.000     8.6170    31.5044    9.76953  102.75249    24.4414 8.9213e+00     19.107     1.2118 0.0000e+00
     18.000     8.6245    31.4960    9.76663  102.75929    24.4336 1.0710e+01     18.091     1.0452 0.0000e+00
     17.000     8.6401    31.4893    9.76859  102.81213    24.4273 1.3062e+01     17.184     1.0211 0.0000e+00
     16.000     8.6608    31.4710    9.76862  102.86391    24.4106 1.5849e+01     15.981     0.9779 0.0000e+00
     15.000     8.6669    31.4558    9.75805  102.76977    24.3964 1.9597e+01     15.211     1.0265 0.0000e+00
     14.000     8.6758    31.4438    9.74902  102.71676    24.3853 2.4251e+01     14.086     0.9809 0.0000e+00
     13.000     8.6852    31.4370    9.75033  102.76696    24.3787 3.0241e+01     13.213     0.9227 0.0000e+00
     12.000     8.6983    31.4277    9.73922  102.71169    24.3700 3.8167e+01     12.237     0.9176 0.0000e+00
     11.000     8.7110    31.4130    9.72867  102.66356    24.3564 4.8650e+01     11.152     0.9357 0.0000e+00
     10.000     8.7290    31.4010    9.72405  102.74097    24.3451 6.2047e+01     10.115     0.9802 0.0000e+00
      9.000     8.7481    31.3866    9.67772  102.31873    24.3319 7.9084e+01      9.111     1.0447 0.0000e+00
      8.000     8.7795    31.3642   10.25743  101.10494    24.3106 1.0254e+02      8.049     0.9831 0.0000e+00
      7.000     8.7945    31.3420   11.10216  100.54981    24.2893 1.3266e+02      7.103     0.9832 0.0000e+00
      6.000     8.8163    31.3261   11.33273  100.24859    24.2741 1.6986e+02      6.090     0.9763 0.0000e+00
      5.000     8.8380    31.3119   11.34052  100.26629    24.2604 2.1174e+02      5.185     0.8312 0.0000e+00
      4.000     8.8700    31.2939   11.41350  100.23314    24.2428 2.7296e+02      4.279     0.7699 0.0000e+00
      3.000     8.8940    31.2746   11.47953  100.16949    24.2235 3.4566e+02      3.469     0.6483 0.0000e+00
      2.000     8.9360    31.2552 -9.990e-29 -9.990e-29    24.2037 4.5344e+02      2.611     0.5348 0.0000e+00
      1.000     9.0025    31.2414 -9.990e-29 -9.990e-29    24.1870 1.0231e+03      1.880     0.4538 0.0000e+00
