* Sea-Bird SBE19plus Data File:
* FileName = C:\data\otf\2007\ctd-07028.hex
* Software Version 1.55
* Temperature SN =  5061
* Conductivity SN =  5061
* System UpLoad Time = Aug 15 2007 16:00:53
* ds
* SeacatPlus V 1.6a  SERIAL NO. 5061    15 Aug 2007  15:31:53
* vbatt = 10.9, vlith =  8.7, ioper =  61.6 ma, ipump =  57.5 ma, 
* iext01 =  95.2 ma
* iext23 =  58.1 ma
* 
* status = not logging
* number of scans to average = 1
* samples = 153039, free = 288466, casts = 154
* mode = profile, minimum cond freq = 3000, pump delay = 60 sec
* autorun = no, ignore magnetic switch = no
* battery type = alkaline, battery cutoff =  7.3 volts
* pressure sensor = strain gauge, range = 870.0
* SBE 38 = no, Gas Tension Device = no
* Ext Volt 0 = yes, Ext Volt 1 = yes, Ext Volt 2 = yes, Ext Volt 3 = yes
* echo commands = yes
* output format = raw HEX
* S>
* 
* SeacatPlus V 1.6a  SERIAL NO. 5061    15 Aug 2007  15:32:18
* temperature:  05-oct-06
*     TA0 = 1.254184e-03
*     TA1 = 2.596730e-04
*     TA2 = 5.165612e-07
*     TA3 = 1.318931e-07
*     TOFFSET = 0.000000e+00
* conductivity:  05-oct-06
*     G = -9.978144e-01
*     H = 1.555200e-01
*     I = -4.839108e-04
*     J = 6.121100e-05
*     CF0 = 2.539936e+03
*     CPCOR = -9.570000e-08
*     CTCOR = 3.250000e-06
*     CSLOPE = 1.000000e+00
* pressure S/N = 2362539, range = 870 psia:  24-aug-06
*     PA0 = 2.171091e-01
*     PA1 = 2.647085e-03
*     PA2 = 1.419397e-11
*     PTCA0 = 5.242437e+05
*     PTCA1 = 7.545345e+00
*     PTCA2 = -1.835354e-01
*     PTCB0 = 2.537125e+01
*     PTCB1 = -1.750000e-03
*     PTCB2 = 0.000000e+00
*     PTEMPA0 = -5.753989e+01
*     PTEMPA1 = 5.235813e+01
*     PTEMPA2 = -4.015521e-02
*     POFFSET = 0.000000e+00
* volt 0: offset = -4.682842e-02, slope = 1.249147e+00
* volt 1: offset = -4.695158e-02, slope = 1.248145e+00
* volt 2: offset = -4.685263e-02, slope = 1.248783e+00
* volt 3: offset = -4.690316e-02, slope = 1.249508e+00
*     EXTFREQSF = 1.000002e+00
* dh
* cast  28 07 Jul 2007 09:22:06 samples 33237 to 33468, avg = 4, stop = mag switch
* S> 
# nquan = 10
# nvalues = 90                          
# units = specified
# name 0 = depSM: Depth [salt water, m]
# name 1 = tv290C: Temperature [ITS-90, deg C]
# name 2 = sal00: Salinity [PSU]
# name 3 = sbeox0Mg/L: Oxygen, SBE 43 [mg/l]
# name 4 = sbeox0PS: Oxygen, SBE 43 [% saturation]
# name 5 = sigma-t00: Density [sigma-t, Kg/m^3 ]
# name 6 = par: PAR/Irradiance, Biospherical/Licor
# name 7 = prdM: Pressure, Strain Gauge [db]
# name 8 = flECO-AFL: Fluorescence, Wetlab ECO-AFL/FL [mg/m^3]
# name 9 = flag: flag
# span 0 =      1.000,     47.000       
# span 1 =     7.8335,     7.9327       
# span 2 =    31.7260,    31.9907       
# span 3 =    8.54284,   10.90384       
# span 4 =   88.35545,  104.48485       
# span 5 =    24.7257,    24.9181       
# span 6 = 2.1623e+00, 1.3730e+03       
# span 7 =      1.954,     46.867       
# span 8 =     0.4546,     1.0755       
# span 9 = 0.0000e+00, 0.0000e+00       
# interval = meters: 1                  
# start_time = Jul 07 2007 09:22:06
# bad_flag = -9.990e-29
# sensor 0 = Frequency 0  temperature, 5061, 05-Oct-06
# sensor 1 = Frequency 1  conductivity, 5061, 05-Oct-06, cpcor = -9.5700e-08
# sensor 2 = Pressure Number
# sensor 3 = Extrnl Volt  0  irradiance (PAR), primary, 4751, 08/10/06
# sensor 4 = Extrnl Volt  1  Oxygen, SBE, primary, 1081, 10/24/06
# sensor 5 = Extrnl Volt  2  WET Labs, ECO_AFL
# sensor 6 = Extrnl Volt  3  userpoly 0, 0627, 10/11/06
# datcnv_date = Oct 15 2007 14:49:44, 5.37e
# datcnv_in = I:\bob d\OTF_GEM\2007\ctd-07028.hex I:\Willette\OTF\CTD\5061.con
# datcnv_skipover = 0
# filter_date = Oct 15 2007 15:02:22, 5.37e
# filter_in = I:\Willette\OTF\CTD\2007\CTD Data\ctd-07028.cnv
# filter_low_pass_tc_A = 1.000
# filter_low_pass_tc_B = 0.150
# filter_low_pass_A_vars = prdM
# filter_low_pass_B_vars =
# loopedit_date = Oct 15 2007 15:06:45, 5.37e
# loopedit_in = I:\Willette\OTF\CTD\2007\CTD Data\ctd-07028.cnv
# loopedit_minVelocity = 0.250                                                                                            
# loopedit_surfaceSoak: minDepth = 5.0, maxDepth = 20, useDeckPress = 1                                                   
# loopedit_excl_bad_scans = yes
# alignctd_date = Oct 15 2007 15:14:14, 5.37e
# alignctd_in = I:\Willette\OTF\CTD\2007\CTD Data\ctd-07028.cnv
# alignctd_adv = tv290C 0.500, sbeox0Mg/L 4.000, sbeox0PS 4.000                                                                                                                                                                      
# binavg_date = Oct 15 2007 15:18:42, 5.37e
# binavg_in = I:\Willette\OTF\CTD\2007\CTD Data\ctd-07028.cnv
# binavg_bintype = meters
# binavg_binsize = 1
# binavg_excl_bad_scans = yes
# binavg_skipover = 0
# binavg_surface_bin = no, min = 0.000, max = 0.000, value = 0.000
# file_type = ascii
*END*
      4.000     7.8777    31.8545    8.84533   91.56250    24.8196 2.7978e+02      4.459     0.4546 0.0000e+00
      5.000     7.8811    31.8172    8.82375   91.30235    24.7906 2.7153e+02      5.069     0.4927 0.0000e+00
      6.000     7.8955    31.8271    8.73051   90.33333    24.8000 2.4730e+02      5.653     0.5323 0.0000e+00
      7.000     7.9209    31.9545    8.54284   88.35545    24.8974 2.0528e+02      6.652     0.6523 0.0000e+00
      8.000     7.9327    31.9907    8.88679   91.85510    24.9181 1.5920e+02      8.514     0.8353 0.0000e+00
      9.000     7.8779    31.7997    9.04435   93.46502    24.7754 1.2982e+02      9.547     0.7188 0.0000e+00
     10.000     7.8732    31.7849    9.20254   95.07470    24.7667 1.1804e+02     10.358     0.8388 0.0000e+00
     11.000     7.8789    31.7942    9.39606   97.06827    24.7751 1.0438e+02     11.275     0.9209 0.0000e+00
     12.000     7.8855    31.8272    9.51825   98.32637    24.8004 9.0857e+01     12.301     0.8978 0.0000e+00
     13.000     7.8771    31.8017    9.56883   98.84774    24.7792 8.0487e+01     13.495     0.9348 0.0000e+00
     14.000     7.8706    31.7875    9.62291   99.40550    24.7690 7.1243e+01     14.612     0.9161 0.0000e+00
     15.000     7.8580    31.7759    9.64307   99.61360    24.7609 6.1635e+01     15.638     0.8737 0.0000e+00
     16.000     7.8569    31.7656    9.66762   99.86707    24.7541 5.3525e+01     16.547     0.8647 0.0000e+00
     17.000     7.8555    31.7650    9.68567  100.05297    24.7546 4.5646e+01     17.451     0.8691 0.0000e+00
     18.000     7.8518    31.7622    9.68201  100.01474    24.7522 3.9818e+01     18.450     0.8712 0.0000e+00
     19.000     7.8438    31.7531    9.67610   99.95399    24.7453 3.4279e+01     19.278     0.8437 0.0000e+00
     20.000     7.8389    31.7416    9.70691  100.27190    24.7373 2.9525e+01     20.366     0.8199 0.0000e+00
     21.000     7.8370    31.7340    9.72002  100.40747    24.7324 2.5624e+01     21.375     0.8497 0.0000e+00
     22.000     7.8351    31.7322    9.74379  100.65308    24.7314 2.2130e+01     22.344     0.7967 0.0000e+00
     23.000     7.8348    31.7328    9.76458  100.86821    24.7322 1.9046e+01     23.458     0.7802 0.0000e+00
     24.000     7.8345    31.7338    9.76806  100.90352    24.7331 1.6753e+01     24.508     0.6707 0.0000e+00
     25.000     7.8346    31.7332    9.77284  100.95183    24.7326 1.4709e+01     25.240     0.7356 0.0000e+00
     26.000     7.8344    31.7331    9.79788  101.21025    24.7326 1.2774e+01     26.164     0.7834 0.0000e+00
     27.000     7.8344    31.7327    9.77739  100.99881    24.7322 1.1229e+01     27.187     0.8075 0.0000e+00
     28.000     7.8343    31.7325    9.79570  101.18814    24.7321 9.9816e+00     27.885     0.7539 0.0000e+00
     29.000     7.8342    31.7324    9.79472  101.17850    24.7321 8.7535e+00     28.695     0.7430 0.0000e+00
     30.000     7.8341    31.7328    9.80398  101.27439    24.7324 7.7396e+00     29.815     0.7586 0.0000e+00
     31.000     7.8342    31.7325    9.80929  101.32915    24.7322 6.9123e+00     30.819     0.6988 0.0000e+00
     32.000     7.8342    31.7318    9.80110  101.24462    24.7316 6.1942e+00     31.950     0.7414 0.0000e+00
     33.000     7.8343    31.7313    9.80312  101.26547    24.7312 5.6007e+00     33.015     0.8395 0.0000e+00
     34.000     7.8343    31.7310    9.81140  101.35117    24.7310 5.0625e+00     34.165     0.7698 0.0000e+00
     35.000     7.8344    31.7315    9.79058  101.13756    24.7313 4.6366e+00     35.320     0.9357 0.0000e+00
     36.000     7.8336    31.7310    9.81606  101.39990    24.7310 4.2681e+00     36.368     0.8076 0.0000e+00
     37.000     7.8337    31.7312    9.77857  101.01355    24.7312 3.9633e+00     37.444     0.8040 0.0000e+00
     38.000     7.8338    31.7312    9.80858  101.32236    24.7312 3.6703e+00     38.490     0.8240 0.0000e+00
     39.000     7.8338    31.7318    9.81509  101.38916    24.7316 3.4142e+00     39.457     0.6890 0.0000e+00
     40.000     7.8339    31.7321    9.81773  101.41623    24.7318 3.1820e+00     40.325     0.6493 0.0000e+00
     41.000     7.8338    31.7320    9.81165  101.35366    24.7318 2.9649e+00     41.279     0.6794 0.0000e+00
     42.000     7.8338    31.7319    9.81458  101.38312    24.7317 2.7858e+00     42.123     0.6064 0.0000e+00
     43.000     7.8339    31.7323    9.80314  101.26503    24.7321 2.6267e+00     43.018     0.7699 0.0000e+00
     44.000     7.8339    31.7322    9.80387  101.27273    24.7320 2.4927e+00     43.866     0.7677 0.0000e+00
     45.000     7.8343    31.7322    9.79566  101.18980    24.7320 2.3789e+00     44.634     0.7334 0.0000e+00
     46.000     7.8341    31.7327    9.80058  101.24362    24.7322 2.2762e+00     45.542     0.7587 0.0000e+00
     47.000     7.8358    31.7324    9.81044  101.34845    24.7319 2.1623e+00     46.867     0.7850 0.0000e+00
     46.000     7.8356    31.7328    9.82876  101.53503    24.7319 2.2767e+00     45.890     0.7895 0.0000e+00
     45.000     7.8343    31.7325    9.83378  101.58434    24.7320 2.3606e+00     45.032     0.7364 0.0000e+00
     44.000     7.8347    31.7324    9.83198  101.56642    24.7320 2.4533e+00     44.199     0.7817 0.0000e+00
     43.000     7.8352    31.7323    9.83679  101.61621    24.7319 2.5681e+00     43.317     0.7123 0.0000e+00
     42.000     7.8346    31.7324    9.83130  101.56113    24.7320 2.7013e+00     42.350     0.7202 0.0000e+00
     41.000     7.8356    31.7324    9.84013  101.65237    24.7320 2.8541e+00     41.318     0.7668 0.0000e+00
     40.000     7.8358    31.7319    9.84111  101.66206    24.7316 3.0177e+00     40.237     0.7229 0.0000e+00
     39.000     7.8350    31.7321    9.83905  101.64327    24.7315 3.2130e+00     39.295     0.7169 0.0000e+00
     38.000     7.8350    31.7318    9.84409  101.69276    24.7316 3.4606e+00     38.276     0.7381 0.0000e+00
     37.000     7.8351    31.7316    9.84453  101.69653    24.7313 3.7475e+00     37.260     0.7271 0.0000e+00
     36.000     7.8356    31.7320    9.84182  101.66975    24.7316 4.0555e+00     36.244     0.7806 0.0000e+00
     35.000     7.8357    31.7327    9.83479  101.59304    24.7322 4.3829e+00     35.289     0.7299 0.0000e+00
     34.000     7.8364    31.7308    9.82900  101.53858    24.7305 4.7602e+00     34.310     0.8364 0.0000e+00
     33.000     7.8363    31.7314    9.81684  101.40978    24.7311 5.2048e+00     33.264     0.7558 0.0000e+00
     32.000     7.8359    31.7327    9.80432  101.28059    24.7321 5.6998e+00     32.304     0.7356 0.0000e+00
     31.000     7.8356    31.7302    9.79162  101.14986    24.7298 6.2840e+00     31.234     0.9009 0.0000e+00
     30.000     7.8351    31.7324    9.80873  101.32447    24.7319 6.9991e+00     30.316     1.0755 0.0000e+00
     29.000     7.8348    31.7329    9.82122  101.45470    24.7323 7.8730e+00     29.298     0.9178 0.0000e+00
     28.000     7.8350    31.7338    9.83279  101.57384    24.7331 8.8911e+00     28.221     0.7676 0.0000e+00
     27.000     7.8354    31.7328    9.83356  101.58519    24.7323 1.0007e+01     27.238     0.6916 0.0000e+00
     26.000     7.8340    31.7334    9.83879  101.64193    24.7327 1.1368e+01     26.266     0.6961 0.0000e+00
     25.000     7.8351    31.7337    9.84796  101.73606    24.7331 1.2883e+01     25.242     0.6968 0.0000e+00
     24.000     7.8347    31.7330    9.86070  101.86856    24.7324 1.4576e+01     24.188     0.7922 0.0000e+00
     23.000     7.8340    31.7337    9.85443  101.80239    24.7330 1.6520e+01     23.196     0.8954 0.0000e+00
     22.000     7.8344    31.7335    9.86337  101.89408    24.7330 1.8645e+01     22.181     0.7858 0.0000e+00
     21.000     7.8335    31.7338    9.85760  101.83592    24.7331 2.1126e+01     21.257     0.7090 0.0000e+00
     20.000     7.8377    31.7320    9.86580  101.91718    24.7318 2.3790e+01     20.090     0.7782 0.0000e+00
     19.000     7.8367    31.7309    9.88480  102.11787    24.7305 2.7376e+01     19.180     0.8012 0.0000e+00
     18.000     7.8380    31.7300    9.89490  102.22033    24.7298 3.1433e+01     18.136     0.8778 0.0000e+00
     17.000     7.8388    31.7288    9.91114  102.39021    24.7288 3.6791e+01     17.113     0.9005 0.0000e+00
     16.000     7.8376    31.7291    9.91158  102.39497    24.7289 4.2845e+01     16.178     0.8509 0.0000e+00
     15.000     7.8374    31.7290    9.92164  102.50841    24.7289 4.9992e+01     15.057     0.8996 0.0000e+00
     14.000     7.8377    31.7288    9.92813  102.57603    24.7288 5.8070e+01     14.112     0.8943 0.0000e+00
     13.000     7.8370    31.7299    9.93556  102.65407    24.7296 6.6740e+01     13.070     0.7849 0.0000e+00
     12.000     7.8373    31.7285    9.99361  103.25685    24.7285 7.7945e+01     12.166     0.8211 0.0000e+00
     11.000     7.8382    31.7294   10.01160  103.45376    24.7293 9.0806e+01     11.118     0.9293 0.0000e+00
     10.000     7.8381    31.7287   10.04742  103.83115    24.7286 1.0561e+02     10.074     0.8723 0.0000e+00
      9.000     7.8384    31.7302   10.10972  104.48485    24.7300 1.2112e+02      9.124     0.8375 0.0000e+00
      8.000     7.8385    31.7282    9.95082  102.89422    24.7281 1.4019e+02      8.101     0.7656 0.0000e+00
      7.000     7.8436    31.7298   10.90384  102.25428    24.7294 1.5965e+02      7.058     0.8438 0.0000e+00
      6.000     7.8438    31.7290 -9.990e-29 -9.990e-29    24.7282 1.9353e+02      6.139     0.7609 0.0000e+00
      5.000     7.8434    31.7260 -9.990e-29 -9.990e-29    24.7257 2.3270e+02      5.196     0.6607 0.0000e+00
      4.000     7.8456    31.7281 -9.990e-29 -9.990e-29    24.7273 3.0519e+02      4.268     0.5968 0.0000e+00
      3.000     7.8497    31.7307 -9.990e-29 -9.990e-29    24.7292 3.5125e+02      3.404     0.5480 0.0000e+00
      2.000     7.8525    31.7298 -9.990e-29 -9.990e-29    24.7280 4.5765e+02      2.620     0.4898 0.0000e+00
      1.000     7.8597    31.7293 -9.990e-29 -9.990e-29    24.7272 1.3730e+03      1.954     0.5360 0.0000e+00
