* Sea-Bird SBE19plus Data File:
* FileName = C:\data\otf\2007\ctd-07080.hex
* Software Version 1.55
* Temperature SN =  5061
* Conductivity SN =  5061
* System UpLoad Time = Aug 15 2007 16:21:29
* ds
* SeacatPlus V 1.6a  SERIAL NO. 5061    15 Aug 2007  15:31:53
* vbatt = 10.9, vlith =  8.7, ioper =  61.6 ma, ipump =  57.5 ma, 
* iext01 =  95.2 ma
* iext23 =  58.1 ma
* 
* status = not logging
* number of scans to average = 1
* samples = 153039, free = 288466, casts = 154
* mode = profile, minimum cond freq = 3000, pump delay = 60 sec
* autorun = no, ignore magnetic switch = no
* battery type = alkaline, battery cutoff =  7.3 volts
* pressure sensor = strain gauge, range = 870.0
* SBE 38 = no, Gas Tension Device = no
* Ext Volt 0 = yes, Ext Volt 1 = yes, Ext Volt 2 = yes, Ext Volt 3 = yes
* echo commands = yes
* output format = raw HEX
* S>
* 
* SeacatPlus V 1.6a  SERIAL NO. 5061    15 Aug 2007  15:32:18
* temperature:  05-oct-06
*     TA0 = 1.254184e-03
*     TA1 = 2.596730e-04
*     TA2 = 5.165612e-07
*     TA3 = 1.318931e-07
*     TOFFSET = 0.000000e+00
* conductivity:  05-oct-06
*     G = -9.978144e-01
*     H = 1.555200e-01
*     I = -4.839108e-04
*     J = 6.121100e-05
*     CF0 = 2.539936e+03
*     CPCOR = -9.570000e-08
*     CTCOR = 3.250000e-06
*     CSLOPE = 1.000000e+00
* pressure S/N = 2362539, range = 870 psia:  24-aug-06
*     PA0 = 2.171091e-01
*     PA1 = 2.647085e-03
*     PA2 = 1.419397e-11
*     PTCA0 = 5.242437e+05
*     PTCA1 = 7.545345e+00
*     PTCA2 = -1.835354e-01
*     PTCB0 = 2.537125e+01
*     PTCB1 = -1.750000e-03
*     PTCB2 = 0.000000e+00
*     PTEMPA0 = -5.753989e+01
*     PTEMPA1 = 5.235813e+01
*     PTEMPA2 = -4.015521e-02
*     POFFSET = 0.000000e+00
* volt 0: offset = -4.682842e-02, slope = 1.249147e+00
* volt 1: offset = -4.695158e-02, slope = 1.248145e+00
* volt 2: offset = -4.685263e-02, slope = 1.248783e+00
* volt 3: offset = -4.690316e-02, slope = 1.249508e+00
*     EXTFREQSF = 1.000002e+00
* dh
* cast  80 15 Jul 2007 14:39:00 samples 53193 to 53513, avg = 4, stop = mag switch
* S> 
# nquan = 10
# nvalues = 153                         
# units = specified
# name 0 = depSM: Depth [salt water, m]
# name 1 = tv290C: Temperature [ITS-90, deg C]
# name 2 = sal00: Salinity [PSU]
# name 3 = sbeox0Mg/L: Oxygen, SBE 43 [mg/l]
# name 4 = sbeox0PS: Oxygen, SBE 43 [% saturation]
# name 5 = sigma-t00: Density [sigma-t, Kg/m^3 ]
# name 6 = par: PAR/Irradiance, Biospherical/Licor
# name 7 = prdM: Pressure, Strain Gauge [db]
# name 8 = flECO-AFL: Fluorescence, Wetlab ECO-AFL/FL [mg/m^3]
# name 9 = flag: flag
# span 0 =      1.000,     78.000       
# span 1 =     8.9232,     9.3245       
# span 2 =    30.7008,    30.9566       
# span 3 =    8.89443,   11.38867       
# span 4 =   94.32745,  101.84781       
# span 5 =    23.7090,    23.9650       
# span 6 = 1.5370e+00, 8.2351e+02       
# span 7 =      1.796,     77.849       
# span 8 =     0.3567,     0.7315       
# span 9 = 0.0000e+00, 0.0000e+00       
# interval = meters: 1                  
# start_time = Jul 15 2007 14:39:00
# bad_flag = -9.990e-29
# sensor 0 = Frequency 0  temperature, 5061, 05-Oct-06
# sensor 1 = Frequency 1  conductivity, 5061, 05-Oct-06, cpcor = -9.5700e-08
# sensor 2 = Pressure Number
# sensor 3 = Extrnl Volt  0  irradiance (PAR), primary, 4751, 08/10/06
# sensor 4 = Extrnl Volt  1  Oxygen, SBE, primary, 1081, 10/24/06
# sensor 5 = Extrnl Volt  2  WET Labs, ECO_AFL
# sensor 6 = Extrnl Volt  3  userpoly 0, 0627, 10/11/06
# datcnv_date = Oct 15 2007 14:49:46, 5.37e
# datcnv_in = I:\bob d\OTF_GEM\2007\ctd-07080.hex I:\Willette\OTF\CTD\5061.con
# datcnv_skipover = 0
# filter_date = Oct 15 2007 15:02:26, 5.37e
# filter_in = I:\Willette\OTF\CTD\2007\CTD Data\ctd-07080.cnv
# filter_low_pass_tc_A = 1.000
# filter_low_pass_tc_B = 0.150
# filter_low_pass_A_vars = prdM
# filter_low_pass_B_vars =
# loopedit_date = Oct 15 2007 15:06:48, 5.37e
# loopedit_in = I:\Willette\OTF\CTD\2007\CTD Data\ctd-07080.cnv
# loopedit_minVelocity = 0.250                                                                                            
# loopedit_surfaceSoak: minDepth = 5.0, maxDepth = 20, useDeckPress = 1                                                   
# loopedit_excl_bad_scans = yes
# alignctd_date = Oct 15 2007 15:14:16, 5.37e
# alignctd_in = I:\Willette\OTF\CTD\2007\CTD Data\ctd-07080.cnv
# alignctd_adv = tv290C 0.500, sbeox0Mg/L 4.000, sbeox0PS 4.000                                                                                                                                                                      
# binavg_date = Oct 15 2007 15:18:45, 5.37e
# binavg_in = I:\Willette\OTF\CTD\2007\CTD Data\ctd-07080.cnv
# binavg_bintype = meters
# binavg_binsize = 1
# binavg_excl_bad_scans = yes
# binavg_skipover = 0
# binavg_surface_bin = no, min = 0.000, max = 0.000, value = 0.000
# file_type = ascii
*END*
      3.000     9.2694    30.7466    8.89443   94.32745    23.7382 2.9734e+02      4.249     0.3799 0.0000e+00
      4.000     9.2605    30.7293    8.89826   94.35676    23.7305 2.2965e+02      4.979     0.4397 0.0000e+00
      5.000     9.2445    30.7480    8.90435   94.41094    23.7498 1.6291e+02      5.806     0.5061 0.0000e+00
      6.000     9.2480    30.7281    9.06981   96.16885    23.7359 1.1004e+02      6.780     0.5777 0.0000e+00
      7.000     9.2515    30.7316    9.18602   97.39781    23.7409 7.2656e+01      7.478     0.5896 0.0000e+00
      8.000     9.2402    30.7423    9.27669   98.34659    23.7483 4.5427e+01      8.354     0.5499 0.0000e+00
      9.000     9.2414    30.7179    9.33948   99.01124    23.7284 2.9285e+01      9.419     0.4751 0.0000e+00
     10.000     9.2370    30.7222    9.36057   99.21481    23.7338 2.0241e+01     10.063     0.5210 0.0000e+00
     11.000     9.2399    30.7258    9.38789   99.50811    23.7366 1.4107e+01     11.046     0.5266 0.0000e+00
     12.000     9.2405    30.7245    9.41339   99.76160    23.7356 9.7400e+00     12.059     0.5203 0.0000e+00
     13.000     9.2431    30.7233    9.42968   99.91698    23.7345 6.7895e+00     12.976     0.5445 0.0000e+00
     14.000     9.2507    30.7287    9.44837  100.11373    23.7388 4.8367e+00     14.015     0.5252 0.0000e+00
     15.000     9.2720    30.7286    9.46813  100.31130    23.7376 3.6953e+00     15.345     0.5667 0.0000e+00
     16.000     9.2690    30.7290    9.47516  100.33740    23.7353 3.0899e+00     16.217     0.5416 0.0000e+00
     17.000     9.2651    30.7305    9.48559  100.42669    23.7355 2.5707e+00     17.327     0.5494 0.0000e+00
     18.000     9.2695    30.7195    9.49331  100.51336    23.7274 2.2407e+00     18.414     0.5048 0.0000e+00
     19.000     9.2657    30.7213    9.49915  100.57376    23.7293 2.0102e+00     19.219     0.5567 0.0000e+00
     20.000     9.2599    30.7102    9.50650  100.63880    23.7197 1.8421e+00     20.448     0.5430 0.0000e+00
     21.000     9.2578    30.7182    9.50993  100.68226    23.7269 1.7658e+00     21.276     0.5335 0.0000e+00
     22.000     9.2536    30.7155    9.51793  100.78294    23.7251 1.6962e+00     22.369     0.5430 0.0000e+00
     23.000     9.2531    30.7157    9.52355  100.84828    23.7263 1.6476e+00     23.258     0.5505 0.0000e+00
     24.000     9.2471    30.7176    9.52841  100.90164    23.7283 1.6108e+00     24.292     0.5578 0.0000e+00
     25.000     9.2354    30.7180    9.53322  100.95842    23.7285 1.5882e+00     25.345     0.5321 0.0000e+00
     26.000     9.2380    30.7059    9.53903  101.00412    23.7202 1.5729e+00     26.321     0.5147 0.0000e+00
     27.000     9.2337    30.7197    9.54452  101.04253    23.7327 1.5621e+00     27.272     0.5512 0.0000e+00
     28.000     9.2341    30.7153    9.54236  101.00177    23.7287 1.5553e+00     28.232     0.5610 0.0000e+00
     29.000     9.1984    30.7187    9.54111  100.99020    23.7321 1.5513e+00     29.279     0.5428 0.0000e+00
     30.000     9.1998    30.7008    9.54630  101.05454    23.7180 1.5476e+00     30.246     0.5286 0.0000e+00
     31.000     9.2036    30.7116    9.54763  101.05962    23.7309 1.5459e+00     31.250     0.5282 0.0000e+00
     32.000     9.2001    30.7137    9.54845  101.07703    23.7326 1.5445e+00     32.270     0.5555 0.0000e+00
     33.000     9.1973    30.7155    9.54958  101.09813    23.7341 1.5436e+00     33.194     0.5659 0.0000e+00
     34.000     9.2013    30.7185    9.55347  101.14492    23.7371 1.5430e+00     34.313     0.5721 0.0000e+00
     35.000     9.2073    30.7209    9.55605  101.15522    23.7395 1.5427e+00     35.310     0.5736 0.0000e+00
     36.000     9.2103    30.7222    9.56192  101.17372    23.7396 1.5423e+00     36.204     0.6008 0.0000e+00
     37.000     9.2102    30.7221    9.55999  101.14787    23.7383 1.5420e+00     37.455     0.5322 0.0000e+00
     38.000     9.2136    30.7165    9.56039  101.17420    23.7336 1.5421e+00     38.325     0.6015 0.0000e+00
     39.000     9.2030    30.7197    9.56474  101.18941    23.7362 1.5421e+00     39.434     0.5631 0.0000e+00
     40.000     9.1929    30.7160    9.56462  101.14521    23.7338 1.5421e+00     40.448     0.5538 0.0000e+00
     41.000     9.1886    30.7162    9.56472  101.12840    23.7353 1.5423e+00     41.521     0.5636 0.0000e+00
     42.000     9.1935    30.7208    9.56440  101.12454    23.7403 1.5419e+00     42.523     0.5487 0.0000e+00
     43.000     9.1832    30.7271    9.55989  101.07594    23.7456 1.5425e+00     43.617     0.5809 0.0000e+00
     44.000     9.1939    30.7178    9.55608  101.02031    23.7374 1.5423e+00     44.470     0.5629 0.0000e+00
     45.000     9.1953    30.7247    9.55887  101.00311    23.7443 1.5425e+00     45.380     0.5312 0.0000e+00
     46.000     9.2015    30.7241    9.56721  101.02724    23.7420 1.5419e+00     46.564     0.5737 0.0000e+00
     47.000     9.2012    30.7197    9.57205  101.06252    23.7386 1.5418e+00     47.409     0.5796 0.0000e+00
     48.000     9.1922    30.7189    9.57483  101.09071    23.7372 1.5422e+00     48.321     0.5393 0.0000e+00
     49.000     9.1645    30.7183    9.58153  101.15628    23.7367 1.5421e+00     49.347     0.5593 0.0000e+00
     50.000     9.1721    30.7201    9.58167  101.12672    23.7409 1.5424e+00     50.413     0.5487 0.0000e+00
     51.000     9.1750    30.7307    9.58442  101.06950    23.7509 1.5421e+00     51.455     0.5485 0.0000e+00
     52.000     9.1612    30.7302    9.58684  101.04410    23.7501 1.5422e+00     52.443     0.5301 0.0000e+00
     53.000     9.1421    30.7264    9.59608  101.13242    23.7469 1.5421e+00     53.380     0.5276 0.0000e+00
     54.000     9.1325    30.7302    9.60839  101.25549    23.7531 1.5414e+00     54.553     0.5500 0.0000e+00
     55.000     9.1329    30.7460    9.61264  101.30018    23.7686 1.5370e+00     55.569     0.5613 0.0000e+00
     56.000     9.1325    30.7478    9.61419  101.31626    23.7703 1.5405e+00     56.481     0.5470 0.0000e+00
     57.000     9.1221    30.7474    9.61366  101.31358    23.7699 1.5424e+00     57.532     0.5312 0.0000e+00
     58.000     9.0836    30.7501    9.61952  101.37154    23.7727 1.5398e+00     58.575     0.5382 0.0000e+00
     59.000     9.0622    30.7685    9.62319  101.41115    23.7903 1.5400e+00     59.524     0.5233 0.0000e+00
     60.000     9.0512    30.7931    9.62859  101.46895    23.8137 1.5403e+00     60.490     0.5184 0.0000e+00
     61.000     9.0467    30.8132    9.62933  101.47715    23.8327 1.5410e+00     61.471     0.5541 0.0000e+00
     62.000     9.0312    30.8199    9.62784  101.46166    23.8392 1.5419e+00     62.495     0.5999 0.0000e+00
     63.000     9.0170    30.8274    9.62668  101.44988    23.8458 1.5433e+00     63.566     0.5597 0.0000e+00
     64.000     8.9418    30.8447    9.62910  101.47715    23.8620 1.5429e+00     64.453     0.5874 0.0000e+00
     65.000     8.9232    30.8723    9.61917  101.37827    23.8856 1.5420e+00     65.587     0.5303 0.0000e+00
     66.000     8.9304    30.9428    9.62357  101.42468    23.9518 1.5423e+00     66.486     0.6233 0.0000e+00
     67.000     8.9286    30.9496    9.61614  101.34435    23.9583 1.5423e+00     67.598     0.6761 0.0000e+00
     68.000     8.9284    30.9528    9.62203  101.40499    23.9614 1.5423e+00     68.451     0.7132 0.0000e+00
     69.000     8.9298    30.9536    9.63128  101.50048    23.9622 1.5421e+00     69.603     0.6731 0.0000e+00
     70.000     8.9272    30.9531    9.63943  101.58776    23.9618 1.5427e+00     70.561     0.7174 0.0000e+00
     71.000     8.9283    30.9532    9.63674  101.55948    23.9618 1.5421e+00     71.432     0.6918 0.0000e+00
     72.000     8.9292    30.9535    9.63578  101.55035    23.9621 1.5424e+00     72.453     0.7162 0.0000e+00
     73.000     8.9294    30.9524    9.63745  101.56854    23.9612 1.5421e+00     73.322     0.7137 0.0000e+00
     74.000     8.9296    30.9517    9.63755  101.56967    23.9605 1.5421e+00     74.226     0.7175 0.0000e+00
     75.000     8.9299    30.9518    9.64919  101.69565    23.9606 1.5425e+00     75.073     0.7201 0.0000e+00
     76.000     8.9324    30.9514    9.64904  101.69551    23.9602 1.5425e+00     75.824     0.7170 0.0000e+00
     77.000     8.9343    30.9493    9.64903  101.69494    23.9584 1.5418e+00     76.588     0.7237 0.0000e+00
     78.000     8.9335    30.9470    9.64396  101.63314    23.9562 1.5529e+00     77.849     0.7291 0.0000e+00
     77.000     8.9293    30.9530    9.65247  101.73461    23.9614 1.5413e+00     77.278     0.6764 0.0000e+00
     76.000     8.9296    30.9528    9.64795  101.72722    23.9614 1.5422e+00     76.396     0.6922 0.0000e+00
     75.000     8.9293    30.9529    9.64332  101.72896    23.9614 1.5425e+00     75.511     0.7273 0.0000e+00
     74.000     8.9275    30.9531    9.64263  101.76078    23.9617 1.5425e+00     74.493     0.7315 0.0000e+00
     73.000     8.9258    30.9557    9.63628  101.71140    23.9640 1.5425e+00     73.550     0.6833 0.0000e+00
     72.000     8.9291    30.9566    9.63867  101.77356    23.9650 1.5420e+00     72.523     0.6534 0.0000e+00
     71.000     8.9335    30.9540    9.62654  101.65727    23.9624 1.5419e+00     71.560     0.6822 0.0000e+00
     70.000     8.9517    30.9473    9.61974  101.59619    23.9564 1.5428e+00     70.430     0.6577 0.0000e+00
     69.000     8.9779    30.9288    9.62196  101.65226    23.9395 1.5428e+00     69.455     0.6472 0.0000e+00
     68.000     8.9988    30.8993    9.62108  101.69900    23.9127 1.5427e+00     68.433     0.6150 0.0000e+00
     67.000     9.0184    30.8779    9.61029  101.61494    23.8927 1.5420e+00     67.463     0.6682 0.0000e+00
     66.000     9.0251    30.8601    9.60815  101.60708    23.8765 1.5425e+00     66.571     0.6056 0.0000e+00
     65.000     9.0359    30.8487    9.60699  101.62470    23.8658 1.5428e+00     65.703     0.7107 0.0000e+00
     64.000     9.0531    30.8381    9.60813  101.65380    23.8563 1.5428e+00     64.729     0.5879 0.0000e+00
     63.000     9.0605    30.8184    9.61011  101.66425    23.8380 1.5422e+00     63.704     0.5730 0.0000e+00
     62.000     9.0651    30.8084    9.60922  101.64990    23.8287 1.5424e+00     62.777     0.5699 0.0000e+00
     61.000     9.0744    30.8034    9.60698  101.63134    23.8240 1.5426e+00     61.701     0.5835 0.0000e+00
     60.000     9.1030    30.7973    9.60485  101.62912    23.8180 1.5426e+00     60.747     0.6013 0.0000e+00
     59.000     9.1263    30.7770    9.59462  101.54690    23.7978 1.5426e+00     59.734     0.5803 0.0000e+00
     58.000     9.1404    30.7590    9.59951  101.61073    23.7800 1.5428e+00     58.697     0.5771 0.0000e+00
     57.000     9.1625    30.7483    9.59794  101.58878    23.7691 1.5432e+00     57.570     0.6028 0.0000e+00
     56.000     9.1641    30.7375    9.59909  101.60083    23.7577 1.5444e+00     56.599     0.5734 0.0000e+00
     55.000     9.1595    30.7334    9.59671  101.57784    23.7544 1.5447e+00     55.510     0.5845 0.0000e+00
     54.000     9.1632    30.7343    9.59370  101.54532    23.7557 1.5443e+00     54.564     0.5742 0.0000e+00
     53.000     9.1750    30.7345    9.59671  101.57168    23.7551 1.5437e+00     53.488     0.5574 0.0000e+00
     52.000     9.1875    30.7305    9.59346  101.53812    23.7500 1.5397e+00     52.411     0.5722 0.0000e+00
     51.000     9.1899    30.7256    9.58573  101.46020    23.7445 1.5418e+00     51.454     0.5857 0.0000e+00
     50.000     9.1883    30.7213    9.58684  101.47739    23.7407 1.5424e+00     50.430     0.6054 0.0000e+00
     49.000     9.1881    30.7218    9.58837  101.49818    23.7416 1.5439e+00     49.325     0.5326 0.0000e+00
     48.000     9.1896    30.7209    9.58818  101.49425    23.7407 1.5451e+00     48.447     0.5342 0.0000e+00
     47.000     9.1886    30.7202    9.59255  101.54186    23.7399 1.5446e+00     47.459     0.5309 0.0000e+00
     46.000     9.1869    30.7195    9.59208  101.54250    23.7395 1.5442e+00     46.374     0.5782 0.0000e+00
     45.000     9.1869    30.7205    9.59337  101.55802    23.7406 1.5435e+00     45.399     0.5582 0.0000e+00
     44.000     9.1878    30.7209    9.59223  101.54690    23.7410 1.5435e+00     44.435     0.5909 0.0000e+00
     43.000     9.1917    30.7209    9.59379  101.56329    23.7407 1.5436e+00     43.340     0.5728 0.0000e+00
     42.000     9.1928    30.7197    9.58316  101.44980    23.7394 1.5432e+00     42.408     0.5537 0.0000e+00
     41.000     9.1936    30.7192    9.58545  101.47888    23.7387 1.5433e+00     41.286     0.6422 0.0000e+00
     40.000     9.1921    30.7183    9.57875  101.40683    23.7379 1.5434e+00     40.404     0.5814 0.0000e+00
     39.000     9.1955    30.7190    9.58721  101.50310    23.7386 1.5430e+00     39.309     0.5747 0.0000e+00
     38.000     9.1968    30.7183    9.59318  101.57554    23.7376 1.5432e+00     38.336     0.5832 0.0000e+00
     37.000     9.1975    30.7174    9.59517  101.60972    23.7365 1.5434e+00     37.333     0.5883 0.0000e+00
     36.000     9.1976    30.7171    9.59888  101.64764    23.7364 1.5435e+00     36.369     0.5769 0.0000e+00
     35.000     9.1970    30.7173    9.59811  101.63568    23.7364 1.5438e+00     35.311     0.5768 0.0000e+00
     34.000     9.1983    30.7175    9.59400  101.58796    23.7367 1.5442e+00     34.309     0.6180 0.0000e+00
     33.000     9.1995    30.7166    9.59196  101.55989    23.7358 1.5445e+00     33.332     0.6003 0.0000e+00
     32.000     9.1984    30.7144    9.59479  101.58769    23.7337 1.5452e+00     32.228     0.6507 0.0000e+00
     31.000     9.2021    30.7164    9.59915  101.63553    23.7355 1.5467e+00     31.317     0.5433 0.0000e+00
     30.000     9.2060    30.7189    9.59933  101.64750    23.7371 1.5488e+00     30.310     0.5981 0.0000e+00
     29.000     9.2109    30.7201    9.59213  101.58654    23.7374 1.5515e+00     29.259     0.5775 0.0000e+00
     28.000     9.2089    30.7212    9.58290  101.49147    23.7375 1.5562e+00     28.241     0.5585 0.0000e+00
     27.000     9.2087    30.7194    9.58916  101.56189    23.7363 1.5636e+00     27.302     0.5903 0.0000e+00
     26.000     9.2059    30.7190    9.59743  101.65127    23.7360 1.5746e+00     26.245     0.5914 0.0000e+00
     25.000     9.2042    30.7171    9.60002  101.68371    23.7350 1.5915e+00     25.268     0.5833 0.0000e+00
     24.000     9.2033    30.7172    9.59532  101.63284    23.7354 1.6177e+00     24.248     0.6130 0.0000e+00
     23.000     9.2044    30.7184    9.60146  101.69017    23.7364 1.6608e+00     23.222     0.6378 0.0000e+00
     22.000     9.2110    30.7191    9.59904  101.66441    23.7368 1.7277e+00     22.210     0.6185 0.0000e+00
     21.000     9.2137    30.7223    9.60071  101.68165    23.7384 1.8347e+00     21.207     0.6031 0.0000e+00
     20.000     9.2167    30.7207    9.59822  101.66783    23.7367 1.9938e+00     20.205     0.5936 0.0000e+00
     19.000     9.2177    30.7218    9.59219  101.61990    23.7370 2.2229e+00     19.202     0.6373 0.0000e+00
     18.000     9.2180    30.7202    9.58621  101.63543    23.7355 2.5812e+00     18.167     0.6145 0.0000e+00
     17.000     9.2208    30.7218    9.58894  101.75184    23.7368 3.1399e+00     17.184     0.6316 0.0000e+00
     16.000     9.2183    30.7205    9.58710  101.77305    23.7354 3.9942e+00     16.103     0.6048 0.0000e+00
     15.000     9.2166    30.7193    9.58648  101.74980    23.7348 5.3322e+00     15.171     0.5686 0.0000e+00
     14.000     9.2171    30.7194    9.59439  101.82442    23.7351 7.4044e+00     14.148     0.5626 0.0000e+00
     13.000     9.2194    30.7189    9.59653  101.84781    23.7347 1.0618e+01     13.110     0.5945 0.0000e+00
     12.000     9.2292    30.7165    9.59021  101.77813    23.7328 1.5043e+01     12.102     0.5751 0.0000e+00
     11.000     9.2404    30.7100    9.58703  101.74501    23.7261 2.1227e+01     11.132     0.5579 0.0000e+00
     10.000     9.2855    30.7130    9.58809  101.76470    23.7266 2.9752e+01     10.092     0.5525 0.0000e+00
      9.000     9.3175    30.7169    9.58276  101.72364    23.7233 4.1725e+01      9.128     0.5566 0.0000e+00
      8.000     9.3198    30.7109    9.48610  100.70378    23.7131 5.9287e+01      8.072     0.5374 0.0000e+00
      7.000     9.3127    30.7067   10.34506   99.83182    23.7094 8.3575e+01      7.103     0.6057 0.0000e+00
      6.000     9.3112    30.7075   11.06928   99.99357    23.7111 1.1671e+02      6.084     0.5692 0.0000e+00
      5.000     9.3119    30.7093   11.24264  100.26010    23.7127 1.5857e+02      5.175     0.5786 0.0000e+00
      4.000     9.3109    30.7091   11.27935  100.44239    23.7124 2.1617e+02      4.191     0.5361 0.0000e+00
      3.000     9.3130    30.7064   11.31922  100.50558    23.7105 2.8920e+02      3.354     0.4609 0.0000e+00
      2.000     9.3177    30.7054   11.38867  100.53412    23.7094 3.7518e+02      2.495     0.4066 0.0000e+00
      1.000     9.3245    30.7058   11.38498  100.54001    23.7090 8.2351e+02      1.796     0.3567 0.0000e+00
