* Sea-Bird SBE19plus Data File:
* FileName = C:\data\otf\2007\ctd-07048.hex
* Software Version 1.55
* Temperature SN =  5061
* Conductivity SN =  5061
* System UpLoad Time = Aug 15 2007 16:09:54
* ds
* SeacatPlus V 1.6a  SERIAL NO. 5061    15 Aug 2007  15:31:53
* vbatt = 10.9, vlith =  8.7, ioper =  61.6 ma, ipump =  57.5 ma, 
* iext01 =  95.2 ma
* iext23 =  58.1 ma
* 
* status = not logging
* number of scans to average = 1
* samples = 153039, free = 288466, casts = 154
* mode = profile, minimum cond freq = 3000, pump delay = 60 sec
* autorun = no, ignore magnetic switch = no
* battery type = alkaline, battery cutoff =  7.3 volts
* pressure sensor = strain gauge, range = 870.0
* SBE 38 = no, Gas Tension Device = no
* Ext Volt 0 = yes, Ext Volt 1 = yes, Ext Volt 2 = yes, Ext Volt 3 = yes
* echo commands = yes
* output format = raw HEX
* S>
* 
* SeacatPlus V 1.6a  SERIAL NO. 5061    15 Aug 2007  15:32:18
* temperature:  05-oct-06
*     TA0 = 1.254184e-03
*     TA1 = 2.596730e-04
*     TA2 = 5.165612e-07
*     TA3 = 1.318931e-07
*     TOFFSET = 0.000000e+00
* conductivity:  05-oct-06
*     G = -9.978144e-01
*     H = 1.555200e-01
*     I = -4.839108e-04
*     J = 6.121100e-05
*     CF0 = 2.539936e+03
*     CPCOR = -9.570000e-08
*     CTCOR = 3.250000e-06
*     CSLOPE = 1.000000e+00
* pressure S/N = 2362539, range = 870 psia:  24-aug-06
*     PA0 = 2.171091e-01
*     PA1 = 2.647085e-03
*     PA2 = 1.419397e-11
*     PTCA0 = 5.242437e+05
*     PTCA1 = 7.545345e+00
*     PTCA2 = -1.835354e-01
*     PTCB0 = 2.537125e+01
*     PTCB1 = -1.750000e-03
*     PTCB2 = 0.000000e+00
*     PTEMPA0 = -5.753989e+01
*     PTEMPA1 = 5.235813e+01
*     PTEMPA2 = -4.015521e-02
*     POFFSET = 0.000000e+00
* volt 0: offset = -4.682842e-02, slope = 1.249147e+00
* volt 1: offset = -4.695158e-02, slope = 1.248145e+00
* volt 2: offset = -4.685263e-02, slope = 1.248783e+00
* volt 3: offset = -4.690316e-02, slope = 1.249508e+00
*     EXTFREQSF = 1.000002e+00
* dh
* cast  48 10 Jul 2007 08:35:14 samples 42338 to 42668, avg = 4, stop = mag switch
* S> 
# nquan = 10
# nvalues = 150                         
# units = specified
# name 0 = depSM: Depth [salt water, m]
# name 1 = tv290C: Temperature [ITS-90, deg C]
# name 2 = sal00: Salinity [PSU]
# name 3 = sbeox0Mg/L: Oxygen, SBE 43 [mg/l]
# name 4 = sbeox0PS: Oxygen, SBE 43 [% saturation]
# name 5 = sigma-t00: Density [sigma-t, Kg/m^3 ]
# name 6 = par: PAR/Irradiance, Biospherical/Licor
# name 7 = prdM: Pressure, Strain Gauge [db]
# name 8 = flECO-AFL: Fluorescence, Wetlab ECO-AFL/FL [mg/m^3]
# name 9 = flag: flag
# span 0 =      1.000,     77.000       
# span 1 =     8.1552,     9.2329       
# span 2 =    30.4382,    31.3700       
# span 3 =    8.53176,   11.27237       
# span 4 =   90.12042,  102.37338       
# span 5 =    23.5133,    24.4021       
# span 6 = 1.5475e+00, 1.2650e+02       
# span 7 =      1.779,     76.353       
# span 8 =     0.3709,     3.2501       
# span 9 = 0.0000e+00, 0.0000e+00       
# interval = meters: 1                  
# start_time = Jul 10 2007 08:35:14
# bad_flag = -9.990e-29
# sensor 0 = Frequency 0  temperature, 5061, 05-Oct-06
# sensor 1 = Frequency 1  conductivity, 5061, 05-Oct-06, cpcor = -9.5700e-08
# sensor 2 = Pressure Number
# sensor 3 = Extrnl Volt  0  irradiance (PAR), primary, 4751, 08/10/06
# sensor 4 = Extrnl Volt  1  Oxygen, SBE, primary, 1081, 10/24/06
# sensor 5 = Extrnl Volt  2  WET Labs, ECO_AFL
# sensor 6 = Extrnl Volt  3  userpoly 0, 0627, 10/11/06
# datcnv_date = Oct 15 2007 14:49:45, 5.37e
# datcnv_in = I:\bob d\OTF_GEM\2007\ctd-07048.hex I:\Willette\OTF\CTD\5061.con
# datcnv_skipover = 0
# filter_date = Oct 15 2007 15:02:24, 5.37e
# filter_in = I:\Willette\OTF\CTD\2007\CTD Data\ctd-07048.cnv
# filter_low_pass_tc_A = 1.000
# filter_low_pass_tc_B = 0.150
# filter_low_pass_A_vars = prdM
# filter_low_pass_B_vars =
# loopedit_date = Oct 15 2007 15:06:46, 5.37e
# loopedit_in = I:\Willette\OTF\CTD\2007\CTD Data\ctd-07048.cnv
# loopedit_minVelocity = 0.250                                                                                            
# loopedit_surfaceSoak: minDepth = 5.0, maxDepth = 20, useDeckPress = 1                                                   
# loopedit_excl_bad_scans = yes
# alignctd_date = Oct 15 2007 15:14:15, 5.37e
# alignctd_in = I:\Willette\OTF\CTD\2007\CTD Data\ctd-07048.cnv
# alignctd_adv = tv290C 0.500, sbeox0Mg/L 4.000, sbeox0PS 4.000                                                                                                                                                                      
# binavg_date = Oct 15 2007 15:18:43, 5.37e
# binavg_in = I:\Willette\OTF\CTD\2007\CTD Data\ctd-07048.cnv
# binavg_bintype = meters
# binavg_binsize = 1
# binavg_excl_bad_scans = yes
# binavg_skipover = 0
# binavg_surface_bin = no, min = 0.000, max = 0.000, value = 0.000
# file_type = ascii
*END*
      4.000     9.2329    30.4464    8.63805   91.25137    23.5148 3.9049e+01      4.950     0.4778 0.0000e+00
      5.000     9.2271    30.4419    8.57518   90.57172    23.5134 2.9204e+01      5.576     0.4362 0.0000e+00
      6.000     9.2094    30.4474    8.53176   90.12042    23.5202 2.1621e+01      6.206     0.4480 0.0000e+00
      7.000     9.2152    30.4406    8.56111   90.42503    23.5154 1.6677e+01      6.707     0.4531 0.0000e+00
      8.000     9.2128    30.4599    8.59192   90.74003    23.5329 1.1995e+01      7.378     0.4379 0.0000e+00
      9.000     9.2144    30.4597    9.02417   95.26081    23.5315 8.8252e+00      8.732     0.4434 0.0000e+00
     10.000     9.1926    30.4595    9.32104   98.37035    23.5344 6.7113e+00     10.284     0.4305 0.0000e+00
     11.000     9.2075    30.4575    9.40551   99.26047    23.5349 5.3499e+00     11.204     0.4325 0.0000e+00
     12.000     9.1803    30.4698    9.45775   99.75771    23.5424 4.2000e+00     12.259     0.4120 0.0000e+00
     13.000     9.1773    30.4557    9.48613   99.98399    23.5340 3.4508e+00     13.115     0.4215 0.0000e+00
     14.000     9.1659    30.4774    9.51539  100.04462    23.5525 2.8820e+00     14.243     0.4251 0.0000e+00
     15.000     9.1670    30.4692    9.54040  100.26897    23.5471 2.5200e+00     15.212     0.4207 0.0000e+00
     16.000     9.1523    30.4568    9.55852  100.26991    23.5376 2.2375e+00     16.423     0.4390 0.0000e+00
     17.000     9.1272    30.4571    9.58091  100.51822    23.5390 2.0510e+00     17.385     0.4298 0.0000e+00
     18.000     9.1236    30.4711    9.60472  100.72663    23.5535 1.9090e+00     18.390     0.4201 0.0000e+00
     19.000     9.1269    30.4827    9.61793  100.82368    23.5648 1.7993e+00     19.539     0.4294 0.0000e+00
     20.000     9.1277    30.4788    9.62861  100.93455    23.5610 1.7339e+00     20.222     0.4945 0.0000e+00
     21.000     9.0945    30.4777    9.64569  101.09401    23.5600 1.6757e+00     21.270     0.4930 0.0000e+00
     22.000     9.0561    30.4861    9.65088  101.06849    23.5683 1.6438e+00     22.217     0.4327 0.0000e+00
     23.000     8.9629    30.5176    9.65970  100.96103    23.5989 1.6167e+00     23.133     0.4163 0.0000e+00
     24.000     8.9241    30.5882    9.66863  100.96724    23.6672 1.5970e+00     24.105     0.4063 0.0000e+00
     25.000     8.8357    30.6565    9.67970  101.05020    23.7332 1.5814e+00     25.382     0.7362 0.0000e+00
     26.000     8.7756    30.6740    9.68896  101.10514    23.7496 1.5731e+00     26.165     0.9419 0.0000e+00
     27.000     8.7889    30.7772    9.69998  101.18866    23.8479 1.5654e+00     27.362     1.0217 0.0000e+00
     28.000     8.7619    30.7698    9.70639  101.23423    23.8412 1.5616e+00     28.282     1.0781 0.0000e+00
     29.000     8.7446    30.7693    9.71391  101.30206    23.8407 1.5583e+00     29.147     2.2578 0.0000e+00
     30.000     8.7386    30.7970    9.71688  101.31062    23.8672 1.5554e+00     30.360     3.2501 0.0000e+00
     31.000     8.7179    30.8003    9.72432  101.36524    23.8706 1.5544e+00     31.369     1.0802 0.0000e+00
     32.000     8.6122    30.8113    9.73237  101.43137    23.8810 1.5533e+00     32.497     0.5588 0.0000e+00
     33.000     8.5125    30.8597    9.73701  101.47431    23.9266 1.5527e+00     33.592     0.3709 0.0000e+00
     34.000     8.5012    30.9993    9.74599  101.55066    24.0583 1.5511e+00     34.479     0.6180 0.0000e+00
     35.000     8.4848    31.0129    9.75068  101.57931    24.0716 1.5511e+00     35.567     1.1495 0.0000e+00
     36.000     8.4615    31.0199    9.75188  101.58036    24.0782 1.5514e+00     36.577     1.6187 0.0000e+00
     37.000     8.4536    31.0374    9.75127  101.56536    24.0946 1.5508e+00     37.344     2.5417 0.0000e+00
     38.000     8.4377    31.0573    9.75140  101.55649    24.1135 1.5511e+00     38.416     2.5799 0.0000e+00
     39.000     8.4341    31.0651    9.75359  101.57117    24.1209 1.5507e+00     39.343     1.9477 0.0000e+00
     40.000     8.4259    31.0732    9.75905  101.61911    24.1286 1.5506e+00     40.412     1.5675 0.0000e+00
     41.000     8.4175    31.0781    9.76287  101.64997    24.1333 1.5504e+00     41.188     1.5174 0.0000e+00
     42.000     8.4051    31.0869    9.77100  101.72383    24.1416 1.5502e+00     42.303     1.5176 0.0000e+00
     43.000 -9.990e-29 -9.990e-29 -9.990e-29 -9.990e-29 -9.990e-29 -9.990e-29 -9.990e-29 -9.990e-29 -9.990e-29
     44.000     8.3940    31.1042    9.77856  101.76610    24.1580 1.5499e+00     44.129     1.5547 0.0000e+00
     45.000     8.3841    31.1107    9.78444  101.80165    24.1644 1.5503e+00     45.347     1.5271 0.0000e+00
     46.000     8.3718    31.1168    9.78666  101.81105    24.1699 1.5501e+00     46.424     1.4656 0.0000e+00
     47.000     8.3641    31.1291    9.79252  101.86657    24.1815 1.5503e+00     47.464     1.4012 0.0000e+00
     48.000     8.3576    31.1360    9.79200  101.85279    24.1879 1.5503e+00     48.378     1.4557 0.0000e+00
     49.000     8.3513    31.1440    9.78869  101.77257    24.1953 1.5493e+00     49.435     1.4355 0.0000e+00
     50.000     8.3454    31.1506    9.79578  101.82107    24.2015 1.5491e+00     50.540     1.4325 0.0000e+00
     51.000     8.3389    31.1565    9.80866  101.94474    24.2070 1.5494e+00     51.566     1.3374 0.0000e+00
     52.000     8.3342    31.1617    9.81393  101.99786    24.2118 1.5496e+00     52.610     1.0098 0.0000e+00
     53.000     8.3245    31.1685    9.81501  102.00294    24.2182 1.5492e+00     53.527     0.9342 0.0000e+00
     54.000     8.3084    31.1752    9.81615  102.00573    24.2243 1.5497e+00     54.686     0.8864 0.0000e+00
     55.000     8.2967    31.1884    9.81623  102.00362    24.2365 1.5499e+00     55.632     0.8460 0.0000e+00
     56.000     8.2888    31.1982    9.81688  102.00534    24.2457 1.5500e+00     56.480     0.8130 0.0000e+00
     57.000     8.2812    31.2177    9.81844  101.95904    24.2638 1.5498e+00     57.942     0.7631 0.0000e+00
     58.000     8.2809    31.2196    9.82616  102.05959    24.2657 1.5488e+00     58.634     0.7364 0.0000e+00
     59.000     8.2682    31.2212    9.82869  102.07345    24.2671 1.5493e+00     59.379     0.7246 0.0000e+00
     60.000     8.2329    31.2308    9.83642  102.13654    24.2758 1.5500e+00     61.090     0.6838 0.0000e+00
     61.000     8.2332    31.2512    9.83349  102.10752    24.2949 1.5494e+00     61.692     0.6449 0.0000e+00
     62.000     8.2291    31.2645    9.83896  102.15950    24.3073 1.5495e+00     62.702     0.6398 0.0000e+00
     63.000     8.2279    31.2730    9.84609  102.23030    24.3152 1.5492e+00     63.616     0.6392 0.0000e+00
     64.000     8.2249    31.2748    9.84892  102.25727    24.3170 1.5494e+00     64.503     0.6246 0.0000e+00
     65.000     8.2194    31.2757    9.85509  102.31797    24.3177 1.5495e+00     65.578     0.6324 0.0000e+00
     66.000     8.2175    31.2811    9.85816  102.35047    24.3227 1.5493e+00     66.530     0.6136 0.0000e+00
     67.000     8.2120    31.2855    9.86032  102.37338    24.3268 1.5489e+00     67.619     0.6168 0.0000e+00
     68.000     8.1939    31.2867    9.85514  102.31892    24.3280 1.5494e+00     68.444     0.5912 0.0000e+00
     69.000     8.1878    31.2979    9.84769  102.24085    24.3375 1.5492e+00     69.298     0.5877 0.0000e+00
     70.000     8.1794    31.3312    9.84899  102.25345    24.3683 1.5495e+00     70.481     0.5725 0.0000e+00
     71.000     8.1699    31.3280    9.85602  102.33448    24.3650 1.5496e+00     71.323     0.5620 0.0000e+00
     72.000     8.1682    31.3434    9.85412  102.31260    24.3788 1.5494e+00     72.267     0.5591 0.0000e+00
     73.000     8.1630    31.3487    9.85081  102.27574    24.3835 1.5496e+00     73.258     0.5315 0.0000e+00
     74.000     8.1606    31.3542    9.84538  102.21998    24.3884 1.5492e+00     74.056     0.4846 0.0000e+00
     75.000     8.1583    31.3587    9.84647  102.23146    24.3922 1.5494e+00     74.704     0.4753 0.0000e+00
     76.000     8.1552    31.3641    9.85217  102.29716    24.3970 1.5493e+00     75.633     0.5092 0.0000e+00
     77.000     8.1572    31.3700    9.84845  102.29727    24.4021 1.5501e+00     76.353     0.5460 0.0000e+00
     76.000     8.1573    31.3671    9.84260  102.28770    24.3993 1.5488e+00     75.685     0.5988 0.0000e+00
     75.000     8.1585    31.3668    9.83681  102.23641    24.3993 1.5488e+00     74.876     0.5802 0.0000e+00
     74.000     8.1612    31.3646    9.82799  102.15452    24.3975 1.5486e+00     74.163     0.5337 0.0000e+00
     73.000     8.1647    31.3625    9.82269  102.11045    24.3957 1.5485e+00     73.347     0.5568 0.0000e+00
     72.000     8.1724    31.3550    9.81766  102.06653    24.3892 1.5486e+00     72.466     0.5506 0.0000e+00
     71.000     8.1771    31.3422    9.81768  102.07759    24.3782 1.5487e+00     71.480     0.4906 0.0000e+00
     70.000     8.1881    31.3375    9.82064  102.11698    24.3738 1.5486e+00     70.654     0.4873 0.0000e+00
     69.000     8.1955    31.3218    9.81385  102.05770    24.3599 1.5483e+00     69.576     0.4770 0.0000e+00
     68.000     8.2120    31.3144    9.81702  102.10424    24.3532 1.5484e+00     68.784     0.4815 0.0000e+00
     67.000     8.2264    31.2907    9.81322  102.08469    24.3321 1.5480e+00     67.566     0.4056 0.0000e+00
     66.000     8.2277    31.2797    9.81065  102.05919    24.3217 1.5482e+00     66.794     0.4726 0.0000e+00
     65.000     8.2342    31.2737    9.80801  102.04650    24.3162 1.5486e+00     65.591     0.4553 0.0000e+00
     64.000     8.2416    31.2697    9.80592  102.04304    24.3125 1.5481e+00     64.682     0.4546 0.0000e+00
     63.000     8.2470    31.2609    9.80448  102.04514    24.3044 1.5486e+00     63.766     0.4514 0.0000e+00
     62.000     8.2548    31.2530    9.79948  102.01049    24.2973 1.5482e+00     62.584     0.4362 0.0000e+00
     61.000     8.2606    31.2478    9.80195  102.04881    24.2924 1.5483e+00     61.801     0.4595 0.0000e+00
     60.000     8.2717    31.2374    9.78153  101.86500    24.2826 1.5481e+00     60.333     0.4176 0.0000e+00
     59.000     8.2803    31.2324    9.78632  101.91974    24.2781 1.5482e+00     59.738     0.4257 0.0000e+00
     58.000     8.2863    31.2185    9.78899  101.95969    24.2652 1.5483e+00     58.513     0.4195 0.0000e+00
     57.000     8.2924    31.2155    9.78942  101.96797    24.2622 1.5479e+00     57.685     0.4178 0.0000e+00
     56.000     8.3061    31.2087    9.77726  101.84583    24.2561 1.5482e+00     56.556     0.4538 0.0000e+00
     55.000     8.3175    31.1945    9.77436  101.81879    24.2429 1.5481e+00     55.592     0.4478 0.0000e+00
     54.000     8.3283    31.1838    9.77227  101.80537    24.2331 1.5479e+00     54.658     0.4471 0.0000e+00
     53.000     8.3396    31.1717    9.77330  101.83741    24.2218 1.5480e+00     53.558     0.4160 0.0000e+00
     52.000     8.3508    31.1611    9.76618  101.77222    24.2120 1.5482e+00     52.646     0.4279 0.0000e+00
     51.000     8.3591    31.1474    9.76135  101.74678    24.1992 1.5482e+00     51.534     0.4270 0.0000e+00
     50.000     8.3630    31.1413    9.76064  101.75106    24.1935 1.5480e+00     50.646     0.4410 0.0000e+00
     49.000     8.3660    31.1364    9.75845  101.73720    24.1889 1.5476e+00     49.571     0.4448 0.0000e+00
     48.000     8.3684    31.1338    9.75899  101.75715    24.1866 1.5477e+00     48.583     0.4574 0.0000e+00
     47.000     8.3783    31.1312    9.76403  101.82169    24.1841 1.5478e+00     47.502     0.4465 0.0000e+00
     46.000     8.3881    31.1209    9.76148  101.80603    24.1745 1.5479e+00     46.568     0.4538 0.0000e+00
     45.000     8.4012    31.1108    9.75126  101.70530    24.1650 1.5478e+00     45.550     0.4650 0.0000e+00
     44.000     8.4142    31.0946    9.75345  101.73965    24.1499 1.5476e+00     44.445     0.4423 0.0000e+00
     43.000     8.4201    31.0875    9.75010  101.71992    24.1431 1.5477e+00     43.469     0.4537 0.0000e+00
     42.000     8.4291    31.0811    9.75110  101.77387    24.1369 1.5476e+00     42.464     0.4641 0.0000e+00
     41.000     8.4380    31.0725    9.75392  101.90843    24.1289 1.5478e+00     41.307     0.4544 0.0000e+00
     40.000     8.4419    31.0671    9.74936  102.03249    24.1237 1.5478e+00     40.408     0.4517 0.0000e+00
     39.000     8.4490    31.0628    9.73489  101.94479    24.1196 1.5475e+00     39.199     0.4739 0.0000e+00
     38.000     8.4592    31.0572    9.72756  101.94778    24.1143 1.5478e+00     38.353     0.4600 0.0000e+00
     37.000     8.4807    31.0453    9.72071  101.93347    24.1031 1.5479e+00     37.399     0.4850 0.0000e+00
     36.000     8.5359    31.0199    9.71406  101.89302    24.0793 1.5482e+00     36.290     0.4765 0.0000e+00
     35.000     8.6359    30.9541    9.71115  101.89103    24.0177 1.5484e+00     35.346     0.4796 0.0000e+00
     34.000     8.6710    30.8732    9.70677  101.88123    23.9411 1.5486e+00     34.320     0.4865 0.0000e+00
     33.000     8.7241    30.8465    9.70560  101.91721    23.9157 1.5497e+00     33.178     0.4901 0.0000e+00
     32.000     8.7557    30.8023    9.68915  101.80419    23.8738 1.5500e+00     32.316     0.4996 0.0000e+00
     31.000     8.7745    30.7730    9.68975  101.86347    23.8458 1.5512e+00     31.239     0.5050 0.0000e+00
     30.000     8.7897    30.7620    9.68966  101.89066    23.8352 1.5524e+00     30.284     0.5026 0.0000e+00
     29.000     8.8064    30.7464    9.69260  101.98558    23.8203 1.5549e+00     29.087     0.5051 0.0000e+00
     28.000     8.8239    30.7329    9.68978  102.01115    23.8074 1.5582e+00     28.196     0.5278 0.0000e+00
     27.000     8.8547    30.7191    9.68054  101.94669    23.7941 1.5621e+00     27.196     0.5155 0.0000e+00
     26.000     8.8874    30.6909    9.67113  101.86398    23.7672 1.5689e+00     26.124     0.5238 0.0000e+00
     25.000     8.9066    30.6631    9.66651  101.81876    23.7405 1.5779e+00     25.074     0.5330 0.0000e+00
     24.000     8.9198    30.6512    9.67002  101.87760    23.7289 1.5901e+00     24.168     0.5532 0.0000e+00
     23.000     8.9383    30.6412    9.66153  101.90018    23.7192 1.6069e+00     23.001     0.5204 0.0000e+00
     22.000     8.9708    30.6242    9.65752  101.89791    23.7030 1.6319e+00     22.201     0.5451 0.0000e+00
     21.000     8.9966    30.5937    9.65151  101.86130    23.6735 1.6646e+00     21.151     0.5573 0.0000e+00
     20.000     9.0096    30.5772    9.63753  101.72897    23.6577 1.7166e+00     20.204     0.5521 0.0000e+00
     19.000     9.0174    30.5660    9.63580  101.74329    23.6468 1.7834e+00     19.179     0.5666 0.0000e+00
     18.000     9.0201    30.5610    9.63303  101.75029    23.6417 1.8806e+00     18.193     0.5708 0.0000e+00
     17.000     9.0218    30.5582    9.62660  101.70581    23.6391 2.0234e+00     17.043     0.5838 0.0000e+00
     16.000     9.0723    30.5518    9.63266  101.78469    23.6329 2.2288e+00     16.154     0.6000 0.0000e+00
     15.000     9.1161    30.5114    9.64871  101.96772    23.5941 2.5062e+00     15.142     0.6070 0.0000e+00
     14.000     9.1326    30.4759    9.63392  101.82726    23.5596 2.9099e+00     14.053     0.6222 0.0000e+00
     13.000     9.1404    30.4652    9.62836  101.77821    23.5495 3.4657e+00     13.073     0.7003 0.0000e+00
     12.000     9.1533    30.4600    9.63558  101.85770    23.5443 4.2308e+00     12.162     0.8464 0.0000e+00
     11.000     9.1722    30.4547    9.64155  101.93489    23.5379 5.3564e+00     11.030     0.6998 0.0000e+00
     10.000     9.1816    30.4490    9.63577  101.89752    23.5311 6.9510e+00     10.122     0.7058 0.0000e+00
      9.000     9.1905    30.4447   10.20931  101.89211    23.5258 9.0774e+00      9.090     0.7282 0.0000e+00
      8.000     9.1962    30.4438   10.52652  101.62254    23.5240 1.1847e+01      8.203     0.7449 0.0000e+00
      7.000     9.2038    30.4412   10.07867  100.45056    23.5206 1.6147e+01      6.960     0.7622 0.0000e+00
      6.000     9.2087    30.4416   11.04465   99.89838    23.5201 2.1499e+01      6.009     0.7958 0.0000e+00
      5.000     9.2102    30.4419   10.79329   99.74280    23.5198 2.9312e+01      5.222     0.7929 0.0000e+00
      4.000     9.2136    30.4409   10.73832   99.58385    23.5185 4.0160e+01      4.179     0.8154 0.0000e+00
      3.000     9.2241    30.4409   11.11421   99.46631    23.5181 5.5026e+01      3.250     0.8346 0.0000e+00
      2.000     9.2291    30.4425   11.15931   99.44523    23.5179 7.3036e+01      2.490     0.8526 0.0000e+00
      1.000     9.2280    30.4382   11.27237   99.58161    23.5133 1.2650e+02      1.779     0.8906 0.0000e+00
