* Sea-Bird SBE19plus Data File:
* FileName = C:\data\otf\2007\ctd-07103.hex
* Software Version 1.55
* Temperature SN =  5061
* Conductivity SN =  5061
* System UpLoad Time = Aug 15 2007 16:34:07
* ds
* SeacatPlus V 1.6a  SERIAL NO. 5061    15 Aug 2007  15:31:53
* vbatt = 10.9, vlith =  8.7, ioper =  61.6 ma, ipump =  57.5 ma, 
* iext01 =  95.2 ma
* iext23 =  58.1 ma
* 
* status = not logging
* number of scans to average = 1
* samples = 153039, free = 288466, casts = 154
* mode = profile, minimum cond freq = 3000, pump delay = 60 sec
* autorun = no, ignore magnetic switch = no
* battery type = alkaline, battery cutoff =  7.3 volts
* pressure sensor = strain gauge, range = 870.0
* SBE 38 = no, Gas Tension Device = no
* Ext Volt 0 = yes, Ext Volt 1 = yes, Ext Volt 2 = yes, Ext Volt 3 = yes
* echo commands = yes
* output format = raw HEX
* S>
* 
* SeacatPlus V 1.6a  SERIAL NO. 5061    15 Aug 2007  15:32:18
* temperature:  05-oct-06
*     TA0 = 1.254184e-03
*     TA1 = 2.596730e-04
*     TA2 = 5.165612e-07
*     TA3 = 1.318931e-07
*     TOFFSET = 0.000000e+00
* conductivity:  05-oct-06
*     G = -9.978144e-01
*     H = 1.555200e-01
*     I = -4.839108e-04
*     J = 6.121100e-05
*     CF0 = 2.539936e+03
*     CPCOR = -9.570000e-08
*     CTCOR = 3.250000e-06
*     CSLOPE = 1.000000e+00
* pressure S/N = 2362539, range = 870 psia:  24-aug-06
*     PA0 = 2.171091e-01
*     PA1 = 2.647085e-03
*     PA2 = 1.419397e-11
*     PTCA0 = 5.242437e+05
*     PTCA1 = 7.545345e+00
*     PTCA2 = -1.835354e-01
*     PTCB0 = 2.537125e+01
*     PTCB1 = -1.750000e-03
*     PTCB2 = 0.000000e+00
*     PTEMPA0 = -5.753989e+01
*     PTEMPA1 = 5.235813e+01
*     PTEMPA2 = -4.015521e-02
*     POFFSET = 0.000000e+00
* volt 0: offset = -4.682842e-02, slope = 1.249147e+00
* volt 1: offset = -4.695158e-02, slope = 1.248145e+00
* volt 2: offset = -4.685263e-02, slope = 1.248783e+00
* volt 3: offset = -4.690316e-02, slope = 1.249508e+00
*     EXTFREQSF = 1.000002e+00
* dh
* cast 103 20 Jul 2007 10:16:34 samples 66483 to 66868, avg = 4, stop = mag switch
* S> 
# nquan = 10
# nvalues = 159                         
# units = specified
# name 0 = depSM: Depth [salt water, m]
# name 1 = tv290C: Temperature [ITS-90, deg C]
# name 2 = sal00: Salinity [PSU]
# name 3 = sbeox0Mg/L: Oxygen, SBE 43 [mg/l]
# name 4 = sbeox0PS: Oxygen, SBE 43 [% saturation]
# name 5 = sigma-t00: Density [sigma-t, Kg/m^3 ]
# name 6 = par: PAR/Irradiance, Biospherical/Licor
# name 7 = prdM: Pressure, Strain Gauge [db]
# name 8 = flECO-AFL: Fluorescence, Wetlab ECO-AFL/FL [mg/m^3]
# name 9 = flag: flag
# span 0 =      1.000,     81.000       
# span 1 =     8.5702,     9.6180       
# span 2 =    30.7744,    31.4155       
# span 3 =    9.06371,   10.66300       
# span 4 =   95.32768,  102.29063       
# span 5 =    23.7155,    24.3773       
# span 6 = 1.5478e+00, 3.3044e+02       
# span 7 =      1.869,     80.253       
# span 8 =     0.4911,     1.5003       
# span 9 = 0.0000e+00, 0.0000e+00       
# interval = meters: 1                  
# start_time = Jul 20 2007 10:16:34
# bad_flag = -9.990e-29
# sensor 0 = Frequency 0  temperature, 5061, 05-Oct-06
# sensor 1 = Frequency 1  conductivity, 5061, 05-Oct-06, cpcor = -9.5700e-08
# sensor 2 = Pressure Number
# sensor 3 = Extrnl Volt  0  irradiance (PAR), primary, 4751, 08/10/06
# sensor 4 = Extrnl Volt  1  Oxygen, SBE, primary, 1081, 10/24/06
# sensor 5 = Extrnl Volt  2  WET Labs, ECO_AFL
# sensor 6 = Extrnl Volt  3  userpoly 0, 0627, 10/11/06
# datcnv_date = Oct 15 2007 14:49:47, 5.37e
# datcnv_in = I:\bob d\OTF_GEM\2007\ctd-07103.hex I:\Willette\OTF\CTD\5061.con
# datcnv_skipover = 0
# filter_date = Oct 15 2007 15:02:29, 5.37e
# filter_in = I:\Willette\OTF\CTD\2007\CTD Data\ctd-07103.cnv
# filter_low_pass_tc_A = 1.000
# filter_low_pass_tc_B = 0.150
# filter_low_pass_A_vars = prdM
# filter_low_pass_B_vars =
# loopedit_date = Oct 15 2007 15:06:50, 5.37e
# loopedit_in = I:\Willette\OTF\CTD\2007\CTD Data\ctd-07103.cnv
# loopedit_minVelocity = 0.250                                                                                            
# loopedit_surfaceSoak: minDepth = 5.0, maxDepth = 20, useDeckPress = 1                                                   
# loopedit_excl_bad_scans = yes
# alignctd_date = Oct 15 2007 15:14:18, 5.37e
# alignctd_in = I:\Willette\OTF\CTD\2007\CTD Data\ctd-07103.cnv
# alignctd_adv = tv290C 0.500, sbeox0Mg/L 4.000, sbeox0PS 4.000                                                                                                                                                                      
# binavg_date = Oct 15 2007 15:18:46, 5.37e
# binavg_in = I:\Willette\OTF\CTD\2007\CTD Data\ctd-07103.cnv
# binavg_bintype = meters
# binavg_binsize = 1
# binavg_excl_bad_scans = yes
# binavg_skipover = 0
# binavg_surface_bin = no, min = 0.000, max = 0.000, value = 0.000
# file_type = ascii
*END*
      3.000     9.1712    30.7744    9.09859   95.75420    23.7155 1.6942e+02      4.304     0.6021 0.0000e+00
      4.000     9.0665    31.0411    9.17038   96.51249    23.9819 1.6360e+02      5.171     0.7446 0.0000e+00
      5.000     8.9878    31.0880    9.09859   95.73972    24.0374 1.5933e+02      6.138     0.8191 0.0000e+00
      6.000     8.9627    31.1180    9.08176   95.55203    24.0702 1.4106e+02      6.804     0.8256 0.0000e+00
      7.000     8.9101    31.1984    9.16352   96.41298    24.1444 1.1370e+02      7.861     0.9021 0.0000e+00
      8.000     8.8843    31.1834    9.14871   96.25428    24.1390 1.0209e+02      8.970     0.9163 0.0000e+00
      9.000     8.8734    31.2057    9.06371   95.32768    24.1611 8.8535e+01      9.654     0.9924 0.0000e+00
     10.000     8.8604    31.2219    9.11174   95.82590    24.1770 7.5987e+01     10.557     0.9804 0.0000e+00
     11.000     8.8508    31.2303    9.14540   96.17410    24.1862 6.5335e+01     11.457     0.9771 0.0000e+00
     12.000     8.8417    31.2376    9.13293   96.02580    24.1938 5.5686e+01     12.346     0.9369 0.0000e+00
     13.000 -9.990e-29 -9.990e-29 -9.990e-29 -9.990e-29 -9.990e-29 -9.990e-29 -9.990e-29 -9.990e-29 -9.990e-29
     14.000     8.8371    31.2426    9.17443   96.44466    24.2002 4.2559e+01     13.794     0.9085 0.0000e+00
     15.000     8.7828    31.3217    9.15995   96.26598    24.2646 3.2480e+01     15.417     0.9085 0.0000e+00
     16.000     8.7984    31.2238    9.13094   95.93959    24.1874 2.8187e+01     16.373     0.9192 0.0000e+00
     17.000     8.7957    31.2632    9.17119   96.36476    24.2227 2.4463e+01     16.864     0.8797 0.0000e+00
     18.000     8.7715    31.3018    9.15109   96.13015    24.2542 1.9881e+01     18.358     0.8707 0.0000e+00
     19.000     8.7709    31.2672    9.20686   96.69724    24.2276 1.7479e+01     19.144     0.8689 0.0000e+00
     20.000 -9.990e-29 -9.990e-29 -9.990e-29 -9.990e-29 -9.990e-29 -9.990e-29 -9.990e-29 -9.990e-29 -9.990e-29
     21.000     8.7658    31.2945    9.25332   97.16440    24.2523 1.2803e+01     20.776     0.8689 0.0000e+00
     22.000     8.7598    31.2896    9.31539   97.79949    24.2489 1.0749e+01     22.120     0.8840 0.0000e+00
     23.000     8.7591    31.2895    9.37970   98.46973    24.2497 9.2537e+00     23.028     0.8813 0.0000e+00
     24.000     8.7503    31.2987    9.43860   99.08591    24.2575 7.9200e+00     24.041     0.8656 0.0000e+00
     25.000     8.7372    31.2984    9.48255   99.54328    24.2574 6.8413e+00     25.413     0.8426 0.0000e+00
     26.000     8.7348    31.2965    9.50489   99.77367    24.2576 6.0651e+00     26.255     0.8254 0.0000e+00
     27.000     8.7257    31.3061    9.52387   99.97106    24.2664 5.3245e+00     27.161     0.8088 0.0000e+00
     28.000     8.7154    31.3093    9.53976  100.13275    24.2696 4.6916e+00     28.327     0.8094 0.0000e+00
     29.000     8.7096    31.3106    9.54751  100.20738    24.2719 4.2168e+00     29.190     0.8135 0.0000e+00
     30.000     8.6975    31.3220    9.55907  100.32053    24.2822 3.7617e+00     30.208     0.7870 0.0000e+00
     31.000     8.6909    31.3213    9.56953  100.42113    24.2828 3.4111e+00     31.269     0.7669 0.0000e+00
     32.000     8.6840    31.3299    9.57686  100.49475    24.2913 3.1198e+00     32.194     0.7722 0.0000e+00
     33.000     8.6699    31.3348    9.58022  100.52814    24.2962 2.8689e+00     33.286     0.7769 0.0000e+00
     34.000     8.6634    31.3356    9.58182  100.54102    24.2977 2.6713e+00     34.189     0.7853 0.0000e+00
     35.000     8.6586    31.3427    9.58581  100.58032    24.3049 2.4972e+00     35.027     0.7866 0.0000e+00
     36.000     8.6514    31.3481    9.59336  100.65085    24.3107 2.3335e+00     36.183     0.7888 0.0000e+00
     37.000     8.6484    31.3427    9.60138  100.72682    24.3074 2.2143e+00     37.255     0.7952 0.0000e+00
     38.000     8.6477    31.3453    9.60676  100.78049    24.3101 2.1117e+00     38.008     0.8051 0.0000e+00
     39.000     8.6454    31.3477    9.61415  100.85328    24.3126 2.0103e+00     39.273     0.8473 0.0000e+00
     40.000     8.6419    31.3483    9.62134  100.92168    24.3132 1.9448e+00     40.468     0.7831 0.0000e+00
     41.000     8.6420    31.3497    9.61245  100.80734    24.3146 1.8857e+00     41.098     0.8682 0.0000e+00
     42.000     8.6377    31.3512    9.60908  100.75880    24.3162 1.8300e+00     42.271     1.3821 0.0000e+00
     43.000     8.6327    31.3518    9.60954  100.76347    24.3169 1.7902e+00     43.339     1.3976 0.0000e+00
     44.000     8.6277    31.3541    9.60404  100.70315    24.3194 1.7506e+00     44.294     1.3672 0.0000e+00
     45.000     8.6250    31.3567    9.61389  100.79965    24.3222 1.7175e+00     45.461     1.3410 0.0000e+00
     46.000     8.6242    31.3608    9.62639  100.93180    24.3263 1.6912e+00     46.463     1.3503 0.0000e+00
     47.000     8.6212    31.3610    9.62450  100.91103    24.3265 1.6694e+00     47.511     1.3562 0.0000e+00
     48.000 -9.990e-29 -9.990e-29 -9.990e-29 -9.990e-29 -9.990e-29 -9.990e-29 -9.990e-29 -9.990e-29 -9.990e-29
     49.000     8.6134    31.3636    9.63331  101.00204    24.3291 1.6372e+00     49.284     1.3881 0.0000e+00
     50.000     8.6098    31.3675    9.63371  101.00503    24.3329 1.6217e+00     50.525     1.3971 0.0000e+00
     51.000     8.6080    31.3700    9.63242  100.99078    24.3354 1.6096e+00     51.348     1.4002 0.0000e+00
     52.000     8.6035    31.3729    9.63235  100.98797    24.3382 1.5985e+00     52.608     1.3847 0.0000e+00
     53.000     8.5896    31.3739    9.63153  100.98035    24.3392 1.5924e+00     53.404     1.3959 0.0000e+00
     54.000     8.5833    31.3820    9.63005  100.96399    24.3468 1.5849e+00     54.451     1.4069 0.0000e+00
     55.000     8.5831    31.3919    9.62894  100.95254    24.3562 1.5794e+00     55.417     1.4156 0.0000e+00
     56.000     8.5817    31.3962    9.62779  100.94142    24.3602 1.5746e+00     56.360     1.4235 0.0000e+00
     57.000     8.5774    31.3959    9.63359  101.00298    24.3600 1.5703e+00     57.552     1.4183 0.0000e+00
     58.000     8.5780    31.3980    9.63828  101.05050    24.3620 1.5673e+00     58.271     1.4341 0.0000e+00
     59.000     8.5775    31.4006    9.63531  101.01827    24.3644 1.5641e+00     59.365     1.4274 0.0000e+00
     60.000 -9.990e-29 -9.990e-29 -9.990e-29 -9.990e-29 -9.990e-29 -9.990e-29 -9.990e-29 -9.990e-29 -9.990e-29
     61.000     8.5767    31.4019    9.64068  101.07428    24.3655 1.5596e+00     61.112     1.4106 0.0000e+00
     62.000     8.5756    31.4022    9.64644  101.13478    24.3659 1.5580e+00     62.498     1.3779 0.0000e+00
     63.000     8.5749    31.4028    9.64168  101.08535    24.3664 1.5558e+00     63.079     1.3813 0.0000e+00
     64.000     8.5740    31.4048    9.64415  101.10872    24.3682 1.5550e+00     64.333     1.3904 0.0000e+00
     65.000     8.5739    31.4056    9.64632  101.13152    24.3690 1.5537e+00     65.246     1.3817 0.0000e+00
     66.000     8.5742    31.4062    9.64746  101.14293    24.3695 1.5527e+00     66.351     1.3948 0.0000e+00
     67.000     8.5750    31.4059    9.64573  101.12505    24.3692 1.5526e+00     67.226     1.3978 0.0000e+00
     68.000     8.5732    31.4051    9.63840  101.04837    24.3684 1.5515e+00     68.425     1.3753 0.0000e+00
     69.000     8.5723    31.4081    9.63669  101.03071    24.3710 1.5512e+00     69.481     1.3660 0.0000e+00
     70.000     8.5729    31.4084    9.64802  101.14961    24.3714 1.5504e+00     70.524     1.3624 0.0000e+00
     71.000     8.5713    31.4086    9.64862  101.15649    24.3714 1.5503e+00     71.704     1.3488 0.0000e+00
     72.000     8.5708    31.4116    9.64811  101.15070    24.3741 1.5496e+00     72.691     1.3478 0.0000e+00
     73.000     8.5706    31.4121    9.64936  101.16406    24.3745 1.5495e+00     73.729     1.3397 0.0000e+00
     74.000     8.5706    31.4125    9.64343  101.10303    24.3749 1.5491e+00     74.669     1.3266 0.0000e+00
     75.000     8.5706    31.4129    9.64518  101.12141    24.3751 1.5489e+00     75.829     1.3211 0.0000e+00
     76.000     8.5708    31.4130    9.64766  101.14747    24.3752 1.5488e+00     76.598     1.3193 0.0000e+00
     77.000     8.5711    31.4124    9.64856  101.15724    24.3747 1.5488e+00     77.540     1.2975 0.0000e+00
     78.000     8.5705    31.4124    9.64980  101.17075    24.3747 1.5484e+00     78.452     1.3062 0.0000e+00
     79.000     8.5702    31.4143    9.65257  101.19900    24.3762 1.5484e+00     79.147     1.2799 0.0000e+00
     80.000     8.5703    31.4152    9.65148  101.18753    24.3769 1.5483e+00     79.698     1.2703 0.0000e+00
     81.000     8.5711    31.4155    9.65177  101.18993    24.3773 1.5478e+00     80.253     1.2828 0.0000e+00
     80.000     8.5711    31.4151    9.64554  101.12462    24.3769 1.5480e+00     79.959     1.2617 0.0000e+00
     79.000     8.5715    31.4139    9.64372  101.10515    24.3759 1.5480e+00     79.394     1.2709 0.0000e+00
     78.000     8.5715    31.4136    9.64646  101.13367    24.3756 1.5482e+00     78.771     1.3230 0.0000e+00
     77.000     8.5715    31.4125    9.64344  101.10196    24.3747 1.5481e+00     77.859     1.3272 0.0000e+00
     76.000     8.5709    31.4133    9.64489  101.11713    24.3754 1.5482e+00     76.752     1.3274 0.0000e+00
     75.000     8.5711    31.4132    9.65313  101.20538    24.3753 1.5482e+00     75.722     1.3612 0.0000e+00
     74.000     8.5711    31.4119    9.65248  101.19902    24.3743 1.5485e+00     74.585     1.3749 0.0000e+00
     73.000     8.5723    31.4108    9.64546  101.12812    24.3733 1.5485e+00     73.143     1.3724 0.0000e+00
     72.000     8.5729    31.4095    9.65001  101.17629    24.3722 1.5488e+00     72.185     1.4161 0.0000e+00
     71.000     8.5734    31.4085    9.65203  101.19293    24.3714 1.5492e+00     71.345     1.4297 0.0000e+00
     70.000     8.5737    31.4077    9.64160  101.08229    24.3706 1.5494e+00     70.497     1.4142 0.0000e+00
     69.000     8.5738    31.4071    9.64690  101.14402    24.3701 1.5497e+00     69.620     1.4393 0.0000e+00
     68.000     8.5733    31.4067    9.63714  101.04378    24.3698 1.5504e+00     68.635     1.4330 0.0000e+00
     67.000     8.5752    31.4076    9.64186  101.10063    24.3706 1.5510e+00     67.733     1.4558 0.0000e+00
     66.000     8.5754    31.4046    9.64619  101.15546    24.3679 1.5519e+00     66.740     1.5003 0.0000e+00
     65.000     8.5762    31.4045    9.64635  101.16685    24.3679 1.5525e+00     65.533     1.4802 0.0000e+00
     64.000     8.5734    31.4026    9.64528  101.16918    24.3663 1.5536e+00     64.485     1.4302 0.0000e+00
     63.000     8.5715    31.4081    9.63997  101.12408    24.3709 1.5544e+00     63.395     1.3962 0.0000e+00
     62.000     8.5770    31.4087    9.64429  101.16768    24.3717 1.5560e+00     62.337     1.3753 0.0000e+00
     61.000     8.5777    31.4021    9.64193  101.14208    24.3659 1.5578e+00     61.335     1.3829 0.0000e+00
     60.000     8.5823    31.4016    9.63987  101.12297    24.3653 1.5601e+00     60.348     1.3744 0.0000e+00
     59.000     8.5878    31.3994    9.64322  101.16129    24.3634 1.5627e+00     59.448     1.3317 0.0000e+00
     58.000     8.5878    31.3899    9.64321  101.15514    24.3545 1.5655e+00     58.487     1.3371 0.0000e+00
     57.000     8.5931    31.3902    9.64241  101.14733    24.3548 1.5689e+00     57.691     1.3564 0.0000e+00
     56.000     8.5979    31.3868    9.63889  101.10830    24.3515 1.5730e+00     56.830     1.3772 0.0000e+00
     55.000     8.6035    31.3833    9.63879  101.11075    24.3483 1.5779e+00     55.995     1.3573 0.0000e+00
     54.000     8.6069    31.3777    9.63642  101.09157    24.3429 1.5835e+00     55.135     1.2928 0.0000e+00
     53.000     8.6064    31.3737    9.63959  101.12799    24.3391 1.5907e+00     54.155     1.0970 0.0000e+00
     52.000     8.6076    31.3739    9.64318  101.16703    24.3393 1.5993e+00     53.016     1.0410 0.0000e+00
     51.000     8.6070    31.3731    9.63762  101.12777    24.3386 1.6096e+00     51.618     0.9749 0.0000e+00
     50.000     8.6121    31.3706    9.63649  101.12837    24.3362 1.6210e+00     50.256     0.8623 0.0000e+00
     49.000     8.6154    31.3689    9.63339  101.09877    24.3345 1.6351e+00     49.134     0.8982 0.0000e+00
     48.000     8.6214    31.3648    9.64134  101.18547    24.3305 1.6514e+00     48.139     0.8853 0.0000e+00
     47.000     8.6256    31.3620    9.63768  101.15110    24.3277 1.6711e+00     47.274     0.8796 0.0000e+00
     46.000     8.6283    31.3589    9.63801  101.16064    24.3247 1.6940e+00     46.376     0.8756 0.0000e+00
     45.000     8.6298    31.3567    9.63915  101.18233    24.3226 1.7222e+00     45.459     0.8607 0.0000e+00
     44.000     8.6313    31.3559    9.63937  101.19321    24.3217 1.7568e+00     44.550     0.8935 0.0000e+00
     43.000     8.6318    31.3548    9.63570  101.18113    24.3207 1.7967e+00     43.506     0.9144 0.0000e+00
     42.000     8.6333    31.3547    9.64094  101.26799    24.3205 1.8440e+00     42.426     0.9751 0.0000e+00
     41.000     8.6358    31.3537    9.63137  101.17582    24.3194 1.9024e+00     41.404     0.9337 0.0000e+00
     40.000     8.6408    31.3521    9.63088  101.16842    24.3177 1.9697e+00     40.345     0.9451 0.0000e+00
     39.000     8.6461    31.3492    9.63313  101.17549    24.3147 2.0504e+00     39.442     0.8467 0.0000e+00
     38.000     8.6540    31.3461    9.63860  101.23851    24.3115 2.1483e+00     38.575     0.8157 0.0000e+00
     37.000     8.6718    31.3423    9.64472  101.31136    24.3076 2.2583e+00     37.768     0.7979 0.0000e+00
     36.000     8.6810    31.3279    9.64148  101.30056    24.2932 2.4105e+00     36.587     0.8460 0.0000e+00
     35.000     8.6953    31.3185    9.64369  101.32244    24.2837 2.5825e+00     35.500     0.7934 0.0000e+00
     34.000     8.7062    31.3083    9.64232  101.34032    24.2733 2.7806e+00     34.362     0.7719 0.0000e+00
     33.000     8.7106    31.3046    9.64846  101.43332    24.2695 3.0179e+00     33.052     0.7592 0.0000e+00
     32.000     8.7140    31.3029    9.64592  101.41561    24.2679 3.3111e+00     32.105     0.7726 0.0000e+00
     31.000     8.7163    31.3020    9.62625  101.21909    24.2669 3.6562e+00     31.225     0.7887 0.0000e+00
     30.000     8.7207    31.2999    9.63499  101.32253    24.2648 4.0602e+00     30.225     0.8043 0.0000e+00
     29.000     8.7255    31.2969    9.63979  101.38512    24.2617 4.5327e+00     29.173     0.7773 0.0000e+00
     28.000     8.7289    31.2939    9.63778  101.37246    24.2587 5.1064e+00     27.981     0.8036 0.0000e+00
     27.000     8.7341    31.2927    9.64337  101.44601    24.2574 5.7660e+00     27.032     0.7676 0.0000e+00
     26.000     8.7377    31.2893    9.63843  101.42647    24.2540 6.5867e+00     26.133     0.7542 0.0000e+00
     25.000     8.7417    31.2874    9.64155  101.47659    24.2519 7.5506e+00     25.192     0.7776 0.0000e+00
     24.000     8.7464    31.2844    9.64425  101.52017    24.2490 8.6853e+00     24.131     0.7942 0.0000e+00
     23.000     8.7493    31.2820    9.64606  101.55024    24.2465 1.0095e+01     23.195     0.7846 0.0000e+00
     22.000     8.7526    31.2800    9.64510  101.56122    24.2444 1.1704e+01     22.030     0.7629 0.0000e+00
     21.000     8.7587    31.2783    9.63533  101.48711    24.2427 1.3494e+01     21.066     0.7733 0.0000e+00
     20.000     8.7727    31.2758    9.63354  101.49366    24.2399 1.5742e+01     20.161     0.7856 0.0000e+00
     19.000     8.7840    31.2647    9.63969  101.58258    24.2286 1.8365e+01     18.950     0.8144 0.0000e+00
     18.000     8.7893    31.2613    9.63528  101.56631    24.2249 2.1588e+01     18.152     0.8022 0.0000e+00
     17.000     8.7960    31.2565    9.63556  101.60828    24.2200 2.5042e+01     17.081     0.8302 0.0000e+00
     16.000     8.8005    31.2530    9.63405  101.62919    24.2165 2.9454e+01     16.170     0.8465 0.0000e+00
     15.000     8.8096    31.2497    9.62919  101.63940    24.2131 3.4391e+01     15.040     0.8380 0.0000e+00
     14.000     8.8221    31.2458    9.63224  101.72927    24.2088 4.0377e+01     14.103     0.8794 0.0000e+00
     13.000     8.8396    31.2352    9.63485  101.85721    24.1980 4.6163e+01     12.806     0.8783 0.0000e+00
     12.000     8.8463    31.2309    9.62867  101.84001    24.1936 5.5960e+01     12.223     0.9204 0.0000e+00
     11.000     8.8598    31.2199    9.60165  101.77079    24.1825 6.4499e+01     10.984     0.9852 0.0000e+00
     10.000     8.8773    31.2141    9.59450  102.29063    24.1768 7.5450e+01     10.187     0.9733 0.0000e+00
      9.000     8.9030    31.1955    9.56626  102.27264    24.1582 8.3918e+01      8.886     0.9409 0.0000e+00
      8.000     8.9145    31.1894    9.55222  102.18129    24.1522 9.6694e+01      8.361     0.9942 0.0000e+00
      7.000     8.9508    31.1727    9.52116  101.92484    24.1352 1.0566e+02      7.208     0.9668 0.0000e+00
      6.000     8.9888    31.1482    9.50548  101.72106    24.1107 1.1734e+02      6.135     0.8769 0.0000e+00
      5.000     9.0425    31.1248    9.38602  100.38710    24.0860 1.3015e+02      5.088     0.7950 0.0000e+00
      4.000     9.1238    31.0958   10.66300   99.80528    24.0561 1.4589e+02      4.145     0.7218 0.0000e+00
      3.000     9.4631    31.0879 -9.990e-29 -9.990e-29    24.0451 1.6303e+02      3.186     0.6572 0.0000e+00
      2.000     9.5978    31.0051 -9.990e-29 -9.990e-29    23.9374 2.0507e+02      2.520     0.5272 0.0000e+00
      1.000     9.6180    30.8646 -9.990e-29 -9.990e-29    23.7939 3.3044e+02      1.869     0.4911 0.0000e+00
