* Sea-Bird SBE19plus Data File:
* FileName = C:\data\otf\2007\ctd-07092.hex
* Software Version 1.55
* Temperature SN =  5061
* Conductivity SN =  5061
* System UpLoad Time = Aug 15 2007 16:25:25
* ds
* SeacatPlus V 1.6a  SERIAL NO. 5061    15 Aug 2007  15:31:53
* vbatt = 10.9, vlith =  8.7, ioper =  61.6 ma, ipump =  57.5 ma, 
* iext01 =  95.2 ma
* iext23 =  58.1 ma
* 
* status = not logging
* number of scans to average = 1
* samples = 153039, free = 288466, casts = 154
* mode = profile, minimum cond freq = 3000, pump delay = 60 sec
* autorun = no, ignore magnetic switch = no
* battery type = alkaline, battery cutoff =  7.3 volts
* pressure sensor = strain gauge, range = 870.0
* SBE 38 = no, Gas Tension Device = no
* Ext Volt 0 = yes, Ext Volt 1 = yes, Ext Volt 2 = yes, Ext Volt 3 = yes
* echo commands = yes
* output format = raw HEX
* S>
* 
* SeacatPlus V 1.6a  SERIAL NO. 5061    15 Aug 2007  15:32:18
* temperature:  05-oct-06
*     TA0 = 1.254184e-03
*     TA1 = 2.596730e-04
*     TA2 = 5.165612e-07
*     TA3 = 1.318931e-07
*     TOFFSET = 0.000000e+00
* conductivity:  05-oct-06
*     G = -9.978144e-01
*     H = 1.555200e-01
*     I = -4.839108e-04
*     J = 6.121100e-05
*     CF0 = 2.539936e+03
*     CPCOR = -9.570000e-08
*     CTCOR = 3.250000e-06
*     CSLOPE = 1.000000e+00
* pressure S/N = 2362539, range = 870 psia:  24-aug-06
*     PA0 = 2.171091e-01
*     PA1 = 2.647085e-03
*     PA2 = 1.419397e-11
*     PTCA0 = 5.242437e+05
*     PTCA1 = 7.545345e+00
*     PTCA2 = -1.835354e-01
*     PTCB0 = 2.537125e+01
*     PTCB1 = -1.750000e-03
*     PTCB2 = 0.000000e+00
*     PTEMPA0 = -5.753989e+01
*     PTEMPA1 = 5.235813e+01
*     PTEMPA2 = -4.015521e-02
*     POFFSET = 0.000000e+00
* volt 0: offset = -4.682842e-02, slope = 1.249147e+00
* volt 1: offset = -4.695158e-02, slope = 1.248145e+00
* volt 2: offset = -4.685263e-02, slope = 1.248783e+00
* volt 3: offset = -4.690316e-02, slope = 1.249508e+00
*     EXTFREQSF = 1.000002e+00
* dh
* cast  92 18 Jul 2007 10:50:37 samples 56751 to 56958, avg = 4, stop = mag switch
* S> 
# nquan = 10
# nvalues = 114                         
# units = specified
# name 0 = depSM: Depth [salt water, m]
# name 1 = tv290C: Temperature [ITS-90, deg C]
# name 2 = sal00: Salinity [PSU]
# name 3 = sbeox0Mg/L: Oxygen, SBE 43 [mg/l]
# name 4 = sbeox0PS: Oxygen, SBE 43 [% saturation]
# name 5 = sigma-t00: Density [sigma-t, Kg/m^3 ]
# name 6 = par: PAR/Irradiance, Biospherical/Licor
# name 7 = prdM: Pressure, Strain Gauge [db]
# name 8 = flECO-AFL: Fluorescence, Wetlab ECO-AFL/FL [mg/m^3]
# name 9 = flag: flag
# span 0 =      1.000,     59.000       
# span 1 =     8.1103,     8.6371       
# span 2 =    31.4967,    31.7555       
# span 3 =    9.27854,    9.83370       
# span 4 =   96.71198,  102.74192       
# span 5 =    24.4513,    24.7111       
# span 6 = 1.5656e+00, 2.5678e+02       
# span 7 =      2.269,     58.501       
# span 8 =     1.1831,     1.6363       
# span 9 = 0.0000e+00, 0.0000e+00       
# interval = meters: 1                  
# start_time = Jul 18 2007 10:50:37
# bad_flag = -9.990e-29
# sensor 0 = Frequency 0  temperature, 5061, 05-Oct-06
# sensor 1 = Frequency 1  conductivity, 5061, 05-Oct-06, cpcor = -9.5700e-08
# sensor 2 = Pressure Number
# sensor 3 = Extrnl Volt  0  irradiance (PAR), primary, 4751, 08/10/06
# sensor 4 = Extrnl Volt  1  Oxygen, SBE, primary, 1081, 10/24/06
# sensor 5 = Extrnl Volt  2  WET Labs, ECO_AFL
# sensor 6 = Extrnl Volt  3  userpoly 0, 0627, 10/11/06
# datcnv_date = Oct 15 2007 14:49:46, 5.37e
# datcnv_in = I:\bob d\OTF_GEM\2007\ctd-07092.hex I:\Willette\OTF\CTD\5061.con
# datcnv_skipover = 0
# filter_date = Oct 15 2007 15:02:27, 5.37e
# filter_in = I:\Willette\OTF\CTD\2007\CTD Data\ctd-07092.cnv
# filter_low_pass_tc_A = 1.000
# filter_low_pass_tc_B = 0.150
# filter_low_pass_A_vars = prdM
# filter_low_pass_B_vars =
# loopedit_date = Oct 15 2007 15:06:49, 5.37e
# loopedit_in = I:\Willette\OTF\CTD\2007\CTD Data\ctd-07092.cnv
# loopedit_minVelocity = 0.250                                                                                            
# loopedit_surfaceSoak: minDepth = 5.0, maxDepth = 20, useDeckPress = 1                                                   
# loopedit_excl_bad_scans = yes
# alignctd_date = Oct 15 2007 15:14:16, 5.37e
# alignctd_in = I:\Willette\OTF\CTD\2007\CTD Data\ctd-07092.cnv
# alignctd_adv = tv290C 0.500, sbeox0Mg/L 4.000, sbeox0PS 4.000                                                                                                                                                                      
# binavg_date = Oct 15 2007 15:18:45, 5.37e
# binavg_in = I:\Willette\OTF\CTD\2007\CTD Data\ctd-07092.cnv
# binavg_bintype = meters
# binavg_binsize = 1
# binavg_excl_bad_scans = yes
# binavg_skipover = 0
# binavg_surface_bin = no, min = 0.000, max = 0.000, value = 0.000
# file_type = ascii
*END*
      4.000     8.4474    31.5294    9.27854   96.71198    24.4765 1.0267e+02      4.987     1.4124 0.0000e+00
      5.000     8.4315    31.5588    9.30712   96.98540    24.5071 8.7743e+01      5.810     1.6363 0.0000e+00
      6.000     8.4281    31.5432    9.29364   96.84954    24.4963 7.6395e+01      6.490     1.1949 0.0000e+00
      7.000     8.4062    31.5781    9.34459   97.33771    24.5246 6.4999e+01      7.402     1.2393 0.0000e+00
      8.000     8.3793    31.5551    9.36970   97.58982    24.5082 5.6167e+01      8.435     1.2468 0.0000e+00
      9.000     8.3619    31.5699    9.38514   97.74486    24.5237 4.7587e+01      9.283     1.2227 0.0000e+00
     10.000     8.3491    31.5949    9.39426   97.83861    24.5469 4.0046e+01     10.431     1.3119 0.0000e+00
     11.000     8.3472    31.5890    9.41074   98.01579    24.5448 3.4196e+01     11.381     1.2785 0.0000e+00
     12.000     8.3303    31.6025    9.43282   98.25320    24.5563 2.8946e+01     12.459     1.2044 0.0000e+00
     13.000     8.3146    31.6009    9.42202   98.13795    24.5565 2.4804e+01     13.644     1.2087 0.0000e+00
     14.000     8.2974    31.6067    9.44537   98.38623    24.5630 2.1210e+01     14.661     1.2513 0.0000e+00
     15.000     8.2805    31.6127    9.46055   98.53937    24.5695 1.8225e+01     15.652     1.2629 0.0000e+00
     16.000     8.2582    31.6215    9.47528   98.63986    24.5785 1.5769e+01     16.611     1.2697 0.0000e+00
     17.000 -9.990e-29 -9.990e-29 -9.990e-29 -9.990e-29 -9.990e-29 -9.990e-29 -9.990e-29 -9.990e-29 -9.990e-29
     18.000     8.2363    31.6373    9.53949   99.23427    24.5942 1.2649e+01     18.015     1.3220 0.0000e+00
     19.000     8.2346    31.6642    9.60193   99.88359    24.6199 1.1502e+01     19.271     1.3450 0.0000e+00
     20.000     8.2127    31.6761    9.64176  100.31366    24.6306 9.0025e+00     20.331     1.3214 0.0000e+00
     21.000     8.2034    31.6718    9.66339  100.53777    24.6273 8.0094e+00     21.269     1.3191 0.0000e+00
     22.000     8.2016    31.6860    9.67627  100.65945    24.6407 7.0660e+00     22.180     1.3329 0.0000e+00
     23.000     8.1994    31.6970    9.68883  100.77724    24.6511 6.2497e+00     23.167     1.3297 0.0000e+00
     24.000     8.1990    31.7008    9.69950  100.87949    24.6547 5.5586e+00     24.186     1.3248 0.0000e+00
     25.000     8.2009    31.7023    9.70766  100.96153    24.6562 4.9744e+00     25.210     1.3462 0.0000e+00
     26.000 -9.990e-29 -9.990e-29 -9.990e-29 -9.990e-29 -9.990e-29 -9.990e-29 -9.990e-29 -9.990e-29 -9.990e-29
     27.000     8.2050    31.6997    9.71365  101.02389    24.6543 4.1969e+00     26.816     1.3213 0.0000e+00
     28.000     8.2100    31.6953    9.71831  101.07314    24.6504 3.6820e+00     28.038     1.3922 0.0000e+00
     29.000     8.2053    31.6952    9.72927  101.18262    24.6499 3.3539e+00     29.167     1.3553 0.0000e+00
     30.000     8.2111    31.6881    9.73747  101.26706    24.6436 3.0941e+00     30.308     1.2836 0.0000e+00
     31.000     8.2057    31.6910    9.74236  101.31978    24.6466 2.8743e+00     31.203     1.3406 0.0000e+00
     32.000     8.1646    31.6882    9.74502  101.34294    24.6437 2.6763e+00     32.206     1.3052 0.0000e+00
     33.000     8.1382    31.6886    9.74219  101.31171    24.6445 2.5151e+00     33.194     1.3479 0.0000e+00
     34.000     8.1359    31.7136    9.74396  101.33427    24.6694 2.3712e+00     34.182     1.2780 0.0000e+00
     35.000     8.1428    31.7383    9.74999  101.39230    24.6933 2.2528e+00     35.255     1.3321 0.0000e+00
     36.000     8.1443    31.7418    9.75134  101.40156    24.6965 2.1537e+00     36.240     1.3506 0.0000e+00
     37.000     8.1376    31.7371    9.75708  101.46096    24.6919 2.0679e+00     37.245     1.3321 0.0000e+00
     38.000     8.1307    31.7347    9.76242  101.51868    24.6898 1.9951e+00     38.190     1.3370 0.0000e+00
     39.000     8.1257    31.7387    9.76338  101.52955    24.6938 1.9305e+00     39.236     1.3211 0.0000e+00
     40.000     8.1248    31.7434    9.76213  101.51929    24.6984 1.8776e+00     40.237     1.3602 0.0000e+00
     41.000     8.1249    31.7468    9.76692  101.56852    24.7018 1.8296e+00     41.235     1.3356 0.0000e+00
     42.000     8.1253    31.7475    9.77530  101.65006    24.7025 1.7883e+00     42.347     1.3482 0.0000e+00
     43.000     8.1234    31.7472    9.77843  101.68161    24.7023 1.7547e+00     43.345     1.3654 0.0000e+00
     44.000     8.1226    31.7467    9.77535  101.64591    24.7018 1.7254e+00     44.343     1.4009 0.0000e+00
     45.000     8.1233    31.7482    9.76897  101.57413    24.7033 1.7003e+00     45.326     1.3230 0.0000e+00
     46.000     8.1213    31.7490    9.77267  101.61654    24.7040 1.6792e+00     46.425     1.3471 0.0000e+00
     47.000     8.1200    31.7483    9.76555  101.54298    24.7033 1.6615e+00     47.287     1.3993 0.0000e+00
     48.000     8.1231    31.7486    9.76110  101.49635    24.7039 1.6443e+00     48.356     1.3571 0.0000e+00
     49.000     8.1193    31.7514    9.77086  101.59710    24.7063 1.6320e+00     49.414     1.3408 0.0000e+00
     50.000     8.1174    31.7480    9.78359  101.73165    24.7032 1.6203e+00     50.194     1.3547 0.0000e+00
     51.000     8.1174    31.7500    9.79132  101.81424    24.7053 1.6098e+00     51.245     1.3600 0.0000e+00
     52.000     8.1194    31.7507    9.79184  101.82342    24.7062 1.6013e+00     52.208     1.3747 0.0000e+00
     53.000     8.1190    31.7521    9.79205  101.82713    24.7071 1.5946e+00     53.051     1.3509 0.0000e+00
     54.000     8.1210    31.7499    9.78785  101.78221    24.7053 1.5880e+00     53.881     1.3242 0.0000e+00
     55.000     8.1196    31.7506    9.79021  101.80674    24.7059 1.5823e+00     54.877     1.3385 0.0000e+00
     56.000     8.1159    31.7494    9.79786  101.88826    24.7044 1.5773e+00     55.707     1.3763 0.0000e+00
     57.000     8.1166    31.7498    9.79231  101.83051    24.7052 1.5738e+00     56.374     1.4218 0.0000e+00
     58.000     8.1135    31.7516    9.79107  101.81075    24.7069 1.5701e+00     57.119     1.3095 0.0000e+00
     59.000     8.1154    31.7524    9.79818  101.87798    24.7078 1.7955e+00     58.501     1.3677 0.0000e+00
     58.000     8.1119    31.7530    9.80447  101.95325    24.7083 1.6029e+00     58.008     1.3454 0.0000e+00
     57.000     8.1103    31.7555    9.81014  102.02605    24.7111 1.5656e+00     56.447     1.3350 0.0000e+00
     56.000     8.1162    31.7553    9.80359  101.97329    24.7108 1.5748e+00     55.872     1.2965 0.0000e+00
     55.000     8.1169    31.7539    9.80588  102.00950    24.7091 1.5805e+00     55.156     1.3285 0.0000e+00
     54.000     8.1152    31.7511    9.80866  102.02827    24.7065 1.5851e+00     54.223     1.3863 0.0000e+00
     53.000     8.1148    31.7519    9.81066  102.02206    24.7073 1.5922e+00     53.361     1.4101 0.0000e+00
     52.000     8.1141    31.7523    9.81186  102.04792    24.7077 1.5993e+00     52.394     1.3286 0.0000e+00
     51.000     8.1140    31.7527    9.81443  102.08582    24.7082 1.6119e+00     51.455     1.2829 0.0000e+00
     50.000     8.1181    31.7525    9.80951  102.04275    24.7080 1.6178e+00     50.506     1.3268 0.0000e+00
     49.000     8.1221    31.7517    9.80526  102.00553    24.7070 1.6285e+00     49.562     1.3493 0.0000e+00
     48.000     8.1230    31.7490    9.80367  101.98984    24.7043 1.6416e+00     48.557     1.3005 0.0000e+00
     47.000     8.1278    31.7476    9.80755  102.03216    24.7030 1.6569e+00     47.567     1.3927 0.0000e+00
     46.000     8.1381    31.7467    9.81241  102.08751    24.7017 1.6745e+00     46.593     1.2561 0.0000e+00
     45.000     8.1343    31.7396    9.81471  102.11499    24.6946 1.6959e+00     45.567     1.3472 0.0000e+00
     44.000     8.1231    31.7391    9.81245  102.09349    24.6945 1.7207e+00     44.534     1.3867 0.0000e+00
     43.000     8.1299    31.7477    9.81060  102.06857    24.7033 1.7484e+00     43.550     1.4008 0.0000e+00
     42.000     8.1347    31.7455    9.80496  102.00984    24.7005 1.7842e+00     42.456     1.3754 0.0000e+00
     41.000     8.1401    31.7401    9.80468  102.01351    24.6952 1.8223e+00     41.409     1.2751 0.0000e+00
     40.000     8.1408    31.7372    9.79668  101.95031    24.6923 1.8682e+00     40.359     1.3414 0.0000e+00
     39.000     8.1428    31.7362    9.80515  102.05009    24.6914 1.9228e+00     39.351     1.3409 0.0000e+00
     38.000     8.1453    31.7344    9.81237  102.13146    24.6897 1.9872e+00     38.399     1.3254 0.0000e+00
     37.000     8.1472    31.7325    9.81900  102.20874    24.6879 2.0605e+00     37.405     1.3091 0.0000e+00
     36.000     8.1473    31.7311    9.81797  102.20411    24.6865 2.1440e+00     36.444     1.2467 0.0000e+00
     35.000     8.1436    31.7305    9.81913  102.22236    24.6859 2.2456e+00     35.433     1.2885 0.0000e+00
     34.000     8.1458    31.7332    9.82011  102.22283    24.6886 2.3636e+00     34.398     1.2991 0.0000e+00
     33.000     8.1534    31.7319    9.82728  102.31705    24.6873 2.5024e+00     33.360     1.4218 0.0000e+00
     32.000     8.1635    31.7257    9.82313  102.28387    24.6811 2.6717e+00     32.293     1.3550 0.0000e+00
     31.000     8.1683    31.7184    9.82622  102.34109    24.6741 2.8591e+00     31.265     1.3627 0.0000e+00
     30.000     8.1736    31.7142    9.83013  102.41687    24.6701 3.0769e+00     30.213     1.3124 0.0000e+00
     29.000     8.1780    31.7097    9.82876  102.42400    24.6659 3.3372e+00     29.204     1.2768 0.0000e+00
     28.000     8.1799    31.7063    9.83225  102.47100    24.6627 3.6318e+00     28.244     1.3646 0.0000e+00
     27.000     8.1747    31.7020    9.83276  102.48922    24.6587 3.9769e+00     27.140     1.3079 0.0000e+00
     26.000     8.1856    31.7069    9.82997  102.50786    24.6633 4.3871e+00     26.243     1.3115 0.0000e+00
     25.000     8.1904    31.6980    9.83006  102.52215    24.6549 4.8772e+00     25.116     1.3159 0.0000e+00
     24.000     8.1988    31.6946    9.82684  102.49826    24.6517 5.4534e+00     24.145     1.2777 0.0000e+00
     23.000     8.2176    31.6881    9.83040  102.53195    24.6455 6.1298e+00     23.186     1.3467 0.0000e+00
     22.000     8.2386    31.6675    9.83370  102.57854    24.6260 6.9125e+00     22.077     1.4043 0.0000e+00
     21.000     8.2418    31.6557    9.82971  102.53981    24.6149 7.8405e+00     21.115     1.3033 0.0000e+00
     20.000     8.2457    31.6490    9.82829  102.54651    24.6085 8.9786e+00     20.146     1.2420 0.0000e+00
     19.000     8.2608    31.6455    9.83088  102.64079    24.6051 1.0362e+01     19.036     1.3104 0.0000e+00
     18.000     8.2799    31.6389    9.83219  102.71064    24.5989 1.1975e+01     18.115     1.2958 0.0000e+00
     17.000     8.2851    31.6158    9.83099  102.74192    24.5767 1.3737e+01     16.930     1.2304 0.0000e+00
     16.000     8.2900    31.6140    9.82297  102.68046    24.5749 1.5867e+01     16.000     1.2011 0.0000e+00
     15.000     8.2874    31.6083    9.81682  102.64671    24.5694 1.8297e+01     15.004     1.1831 0.0000e+00
     14.000     8.2909    31.6103    9.81676  102.67359    24.5712 2.0747e+01     14.003     1.2159 0.0000e+00
     13.000     8.2953    31.6116    9.80945  102.64564    24.5724 2.4245e+01     13.042     1.2398 0.0000e+00
     12.000     8.2977    31.6064    9.80583  102.72596    24.5672 2.8442e+01     12.001     1.2140 0.0000e+00
     11.000     8.3082    31.6065    9.77740  102.63606    24.5672 3.3514e+01     11.055     1.2973 0.0000e+00
     10.000     8.3311    31.6032    9.72025  101.90859    24.5638 3.9243e+01     10.159     1.2777 0.0000e+00
      9.000     8.3643    31.5906    9.67061  101.29832    24.5510 4.5881e+01      9.113     1.2819 0.0000e+00
      8.000     8.3831    31.5703 -9.990e-29 -9.990e-29    24.5307 5.3815e+01      8.221     1.2209 0.0000e+00
      7.000     8.4010    31.5506 -9.990e-29 -9.990e-29    24.5112 6.2201e+01      7.153     1.2811 0.0000e+00
      6.000     8.4101    31.5402 -9.990e-29 -9.990e-29    24.5010 7.1541e+01      6.292     1.2106 0.0000e+00
      5.000     8.4230    31.5326 -9.990e-29 -9.990e-29    24.4932 8.2395e+01      5.407     1.2250 0.0000e+00
      4.000     8.4372    31.5288 -9.990e-29 -9.990e-29    24.4886 9.7481e+01      4.489     1.4269 0.0000e+00
      3.000     8.4661    31.5223 -9.990e-29 -9.990e-29    24.4814 1.1520e+02      3.659     1.3743 0.0000e+00
      2.000     8.5355    31.5127 -9.990e-29 -9.990e-29    24.4706 1.3810e+02      2.887     1.3539 0.0000e+00
      1.000     8.6371    31.4967 -9.990e-29 -9.990e-29    24.4513 2.5678e+02      2.269     1.3389 0.0000e+00
