* Sea-Bird SBE19plus Data File:
* FileName = C:\data\otf\2007\ctd-07057.hex
* Software Version 1.55
* Temperature SN =  5061
* Conductivity SN =  5061
* System UpLoad Time = Aug 15 2007 16:12:44
* ds
* SeacatPlus V 1.6a  SERIAL NO. 5061    15 Aug 2007  15:31:53
* vbatt = 10.9, vlith =  8.7, ioper =  61.6 ma, ipump =  57.5 ma, 
* iext01 =  95.2 ma
* iext23 =  58.1 ma
* 
* status = not logging
* number of scans to average = 1
* samples = 153039, free = 288466, casts = 154
* mode = profile, minimum cond freq = 3000, pump delay = 60 sec
* autorun = no, ignore magnetic switch = no
* battery type = alkaline, battery cutoff =  7.3 volts
* pressure sensor = strain gauge, range = 870.0
* SBE 38 = no, Gas Tension Device = no
* Ext Volt 0 = yes, Ext Volt 1 = yes, Ext Volt 2 = yes, Ext Volt 3 = yes
* echo commands = yes
* output format = raw HEX
* S>
* 
* SeacatPlus V 1.6a  SERIAL NO. 5061    15 Aug 2007  15:32:18
* temperature:  05-oct-06
*     TA0 = 1.254184e-03
*     TA1 = 2.596730e-04
*     TA2 = 5.165612e-07
*     TA3 = 1.318931e-07
*     TOFFSET = 0.000000e+00
* conductivity:  05-oct-06
*     G = -9.978144e-01
*     H = 1.555200e-01
*     I = -4.839108e-04
*     J = 6.121100e-05
*     CF0 = 2.539936e+03
*     CPCOR = -9.570000e-08
*     CTCOR = 3.250000e-06
*     CSLOPE = 1.000000e+00
* pressure S/N = 2362539, range = 870 psia:  24-aug-06
*     PA0 = 2.171091e-01
*     PA1 = 2.647085e-03
*     PA2 = 1.419397e-11
*     PTCA0 = 5.242437e+05
*     PTCA1 = 7.545345e+00
*     PTCA2 = -1.835354e-01
*     PTCB0 = 2.537125e+01
*     PTCB1 = -1.750000e-03
*     PTCB2 = 0.000000e+00
*     PTEMPA0 = -5.753989e+01
*     PTEMPA1 = 5.235813e+01
*     PTEMPA2 = -4.015521e-02
*     POFFSET = 0.000000e+00
* volt 0: offset = -4.682842e-02, slope = 1.249147e+00
* volt 1: offset = -4.695158e-02, slope = 1.248145e+00
* volt 2: offset = -4.685263e-02, slope = 1.248783e+00
* volt 3: offset = -4.690316e-02, slope = 1.249508e+00
*     EXTFREQSF = 1.000002e+00
* dh
* cast  57 11 Jul 2007 16:01:45 samples 44851 to 45073, avg = 4, stop = mag switch
* S> 
# nquan = 10
# nvalues = 110                         
# units = specified
# name 0 = depSM: Depth [salt water, m]
# name 1 = tv290C: Temperature [ITS-90, deg C]
# name 2 = sal00: Salinity [PSU]
# name 3 = sbeox0Mg/L: Oxygen, SBE 43 [mg/l]
# name 4 = sbeox0PS: Oxygen, SBE 43 [% saturation]
# name 5 = sigma-t00: Density [sigma-t, Kg/m^3 ]
# name 6 = par: PAR/Irradiance, Biospherical/Licor
# name 7 = prdM: Pressure, Strain Gauge [db]
# name 8 = flECO-AFL: Fluorescence, Wetlab ECO-AFL/FL [mg/m^3]
# name 9 = flag: flag
# span 0 =      1.000,     57.000       
# span 1 =     8.4436,     9.4107       
# span 2 =    30.4874,    31.2798       
# span 3 =    8.76476,   10.62400       
# span 4 =   92.25022,  101.66025       
# span 5 =    23.5441,    24.2895       
# span 6 = 1.5464e+00, 7.6809e+02       
# span 7 =      1.868,     56.422       
# span 8 =     0.3286,     0.6635       
# span 9 = 0.0000e+00, 0.0000e+00       
# interval = meters: 1                  
# start_time = Jul 11 2007 16:01:45
# bad_flag = -9.990e-29
# sensor 0 = Frequency 0  temperature, 5061, 05-Oct-06
# sensor 1 = Frequency 1  conductivity, 5061, 05-Oct-06, cpcor = -9.5700e-08
# sensor 2 = Pressure Number
# sensor 3 = Extrnl Volt  0  irradiance (PAR), primary, 4751, 08/10/06
# sensor 4 = Extrnl Volt  1  Oxygen, SBE, primary, 1081, 10/24/06
# sensor 5 = Extrnl Volt  2  WET Labs, ECO_AFL
# sensor 6 = Extrnl Volt  3  userpoly 0, 0627, 10/11/06
# datcnv_date = Oct 15 2007 14:49:45, 5.37e
# datcnv_in = I:\bob d\OTF_GEM\2007\ctd-07057.hex I:\Willette\OTF\CTD\5061.con
# datcnv_skipover = 0
# filter_date = Oct 15 2007 15:02:25, 5.37e
# filter_in = I:\Willette\OTF\CTD\2007\CTD Data\ctd-07057.cnv
# filter_low_pass_tc_A = 1.000
# filter_low_pass_tc_B = 0.150
# filter_low_pass_A_vars = prdM
# filter_low_pass_B_vars =
# loopedit_date = Oct 15 2007 15:06:47, 5.37e
# loopedit_in = I:\Willette\OTF\CTD\2007\CTD Data\ctd-07057.cnv
# loopedit_minVelocity = 0.250                                                                                            
# loopedit_surfaceSoak: minDepth = 5.0, maxDepth = 20, useDeckPress = 1                                                   
# loopedit_excl_bad_scans = yes
# alignctd_date = Oct 15 2007 15:14:15, 5.37e
# alignctd_in = I:\Willette\OTF\CTD\2007\CTD Data\ctd-07057.cnv
# alignctd_adv = tv290C 0.500, sbeox0Mg/L 4.000, sbeox0PS 4.000                                                                                                                                                                      
# binavg_date = Oct 15 2007 15:18:44, 5.37e
# binavg_in = I:\Willette\OTF\CTD\2007\CTD Data\ctd-07057.cnv
# binavg_bintype = meters
# binavg_binsize = 1
# binavg_excl_bad_scans = yes
# binavg_skipover = 0
# binavg_surface_bin = no, min = 0.000, max = 0.000, value = 0.000
# file_type = ascii
*END*
      4.000     9.2490    30.5248    9.09697   95.88246    23.5680 5.3333e+02      4.592     0.3286 0.0000e+00
      5.000     9.2265    30.5421    9.06038   95.48539    23.5875 3.5827e+02      5.310     0.3694 0.0000e+00
      6.000     9.1834    30.5820    9.04470   95.30867    23.6249 2.3445e+02      6.317     0.4433 0.0000e+00
      7.000     9.1593    30.5966    9.07280   95.57518    23.6428 1.6038e+02      7.434     0.5529 0.0000e+00
      8.000     9.1263    30.6014    9.07396   95.56625    23.6503 1.0445e+02      8.546     0.6221 0.0000e+00
      9.000     9.1100    30.5965    9.00949   94.96639    23.6504 6.9332e+01      9.515     0.6355 0.0000e+00
     10.000     9.0987    30.6126    8.92307   94.11221    23.6669 4.5310e+01     10.427     0.6336 0.0000e+00
     11.000     9.0888    30.6110    8.76476   92.25022    23.6672 2.9473e+01     11.317     0.5895 0.0000e+00
     12.000     9.0588    30.6215    8.96505   94.32010    23.6770 2.0332e+01     12.323     0.5999 0.0000e+00
     13.000     9.0477    30.6320    9.15634   96.31868    23.6885 1.3931e+01     13.246     0.5686 0.0000e+00
     14.000     9.0327    30.6446    9.29941   97.79434    23.7013 9.1308e+00     14.213     0.5480 0.0000e+00
     15.000     9.0180    30.6471    9.36726   98.43612    23.7048 6.4570e+00     15.120     0.5440 0.0000e+00
     16.000     9.0101    30.6577    9.40952   98.77593    23.7151 4.7229e+00     15.966     0.5438 0.0000e+00
     17.000     9.0057    30.6727    9.45350   99.10826    23.7291 3.5077e+00     16.906     0.5438 0.0000e+00
     18.000     8.9991    30.6802    9.47760   99.27595    23.7362 2.7394e+00     17.850     0.5431 0.0000e+00
     19.000     8.9863    30.6814    9.50072   99.46884    23.7378 2.2664e+00     18.811     0.5361 0.0000e+00
     20.000     8.9640    30.6890    9.52237   99.64614    23.7449 1.9817e+00     19.726     0.5189 0.0000e+00
     21.000     8.9757    30.7079    9.54136   99.83382    23.7624 1.8343e+00     20.595     0.5315 0.0000e+00
     22.000     8.9689    30.7399    9.56854  100.08332    23.7859 1.7285e+00     22.007     0.5241 0.0000e+00
     23.000     8.9139    30.7103    9.59774  100.33921    23.7667 1.6623e+00     23.554     0.5232 0.0000e+00
     24.000     8.8861    30.7518    9.61900  100.54417    23.8080 1.6166e+00     24.884     0.5205 0.0000e+00
     25.000     8.8253    30.7564    9.62716  100.62002    23.8117 1.5925e+00     25.757     0.5268 0.0000e+00
     26.000     8.7501    30.7845    9.63399  100.68875    23.8373 1.5753e+00     26.549     0.5351 0.0000e+00
     27.000     8.6600    30.8575    9.64505  100.80180    23.9039 1.5651e+00     27.504     0.5101 0.0000e+00
     28.000     8.6301    30.9364    9.64932  100.84212    23.9759 1.5591e+00     28.215     0.4902 0.0000e+00
     29.000     8.6038    31.0190    9.65424  100.89049    24.0515 1.5551e+00     29.007     0.5008 0.0000e+00
     30.000     8.5613    31.0825    9.65927  100.93663    24.1110 1.5523e+00     30.300     0.4819 0.0000e+00
     31.000     8.5601    31.1100    9.65291  100.86080    24.1354 1.5510e+00     31.088     0.4653 0.0000e+00
     32.000     8.5438    31.1373    9.66166  100.93170    24.1607 1.5496e+00     32.354     0.4659 0.0000e+00
     33.000     8.5239    31.1533    9.66997  101.01284    24.1750 1.5492e+00     33.529     0.4703 0.0000e+00
     34.000     8.5047    31.1723    9.66478  100.95380    24.1921 1.5483e+00     34.519     0.4771 0.0000e+00
     35.000     8.4981    31.1942    9.66817  100.98873    24.2118 1.5481e+00     35.533     0.4775 0.0000e+00
     36.000     8.4907    31.2101    9.67401  101.04948    24.2265 1.5478e+00     36.585     0.4467 0.0000e+00
     37.000     8.4876    31.2175    9.68041  101.11510    24.2332 1.5476e+00     37.587     0.4500 0.0000e+00
     38.000     8.4856    31.2237    9.68471  101.15894    24.2390 1.5474e+00     38.566     0.4618 0.0000e+00
     39.000     8.4824    31.2263    9.69039  101.21785    24.2414 1.5473e+00     39.686     0.4583 0.0000e+00
     40.000     8.4802    31.2276    9.69737  101.29374    24.2426 1.5476e+00     40.522     0.4540 0.0000e+00
     41.000     8.4775    31.2310    9.69245  101.24266    24.2458 1.5472e+00     41.579     0.4538 0.0000e+00
     42.000     8.4750    31.2342    9.69161  101.23390    24.2485 1.5473e+00     42.474     0.4720 0.0000e+00
     43.000     8.4620    31.2363    9.68851  101.20399    24.2506 1.5470e+00     43.412     0.4647 0.0000e+00
     44.000     8.4565    31.2428    9.68705  101.19363    24.2561 1.5472e+00     44.385     0.4505 0.0000e+00
     45.000     8.4525    31.2632    9.68211  101.14282    24.2745 1.5473e+00     45.564     0.4846 0.0000e+00
     46.000     8.4495    31.2640    9.68439  101.16257    24.2754 1.5469e+00     46.296     0.4632 0.0000e+00
     47.000     8.4481    31.2685    9.69227  101.24527    24.2794 1.5472e+00     47.170     0.4661 0.0000e+00
     48.000     8.4483    31.2756    9.69468  101.27590    24.2856 1.5473e+00     48.398     0.4820 0.0000e+00
     49.000     8.4485    31.2745    9.69564  101.28492    24.2849 1.5467e+00     49.064     0.5090 0.0000e+00
     50.000     8.4477    31.2739    9.70360  101.36763    24.2843 1.5472e+00     50.114     0.4751 0.0000e+00
     51.000     8.4469    31.2738    9.70577  101.39582    24.2843 1.5471e+00     51.080     0.4846 0.0000e+00
     52.000     8.4469    31.2748    9.70490  101.38793    24.2851 1.5469e+00     51.889     0.4817 0.0000e+00
     53.000     8.4481    31.2754    9.70330  101.36328    24.2857 1.5471e+00     52.714     0.4770 0.0000e+00
     54.000     8.4489    31.2745    9.70403  101.36873    24.2851 1.5473e+00     53.471     0.4685 0.0000e+00
     55.000     8.4491    31.2731    9.69847  101.30708    24.2836 1.5470e+00     54.256     0.4758 0.0000e+00
     56.000     8.4514    31.2720    9.69066  101.22408    24.2827 1.5468e+00     55.146     0.4831 0.0000e+00
     57.000     8.4540    31.2699    9.69428  101.25738    24.2805 1.5470e+00     56.422     0.5401 0.0000e+00
     56.000     8.4508    31.2707    9.69541  101.26996    24.2810 1.5468e+00     55.703     0.5052 0.0000e+00
     55.000     8.4484    31.2717    9.69938  101.31113    24.2820 1.5469e+00     55.051     0.5200 0.0000e+00
     54.000     8.4476    31.2743    9.68753  101.18730    24.2847 1.5464e+00     53.979     0.5272 0.0000e+00
     53.000     8.4467    31.2765    9.68849  101.19728    24.2864 1.5465e+00     53.185     0.5119 0.0000e+00
     52.000     8.4436    31.2785    9.69028  101.21909    24.2882 1.5469e+00     52.399     0.5167 0.0000e+00
     51.000     8.4457    31.2784    9.68870  101.20494    24.2884 1.5467e+00     51.360     0.5008 0.0000e+00
     50.000     8.4447    31.2795    9.69123  101.23902    24.2893 1.5470e+00     50.421     0.5002 0.0000e+00
     49.000     8.4457    31.2798    9.69039  101.23470    24.2895 1.5469e+00     49.412     0.5118 0.0000e+00
     48.000     8.4459    31.2775    9.68709  101.20498    24.2875 1.5469e+00     48.459     0.5615 0.0000e+00
     47.000     8.4459    31.2776    9.67991  101.14089    24.2875 1.5470e+00     47.526     0.5411 0.0000e+00
     46.000     8.4459    31.2773    9.67212  101.06924    24.2874 1.5467e+00     46.404     0.5287 0.0000e+00
     45.000     8.4458    31.2771    9.65961  100.94652    24.2872 1.5468e+00     45.491     0.5257 0.0000e+00
     44.000     8.4482    31.2774    9.65800  100.93000    24.2874 1.5466e+00     44.469     0.5198 0.0000e+00
     43.000     8.4515    31.2733    9.66830  101.03936    24.2839 1.5467e+00     43.429     0.6335 0.0000e+00
     42.000     8.4560    31.2701    9.67893  101.15693    24.2810 1.5465e+00     42.554     0.5541 0.0000e+00
     41.000     8.4598    31.2601    9.67389  101.11057    24.2723 1.5466e+00     41.359     0.4945 0.0000e+00
     40.000     8.4638    31.2573    9.66896  101.06744    24.2698 1.5465e+00     40.449     0.4943 0.0000e+00
     39.000     8.4722    31.2502    9.66166  101.00531    24.2635 1.5469e+00     39.439     0.5285 0.0000e+00
     38.000     8.4793    31.2394    9.68306  101.24275    24.2537 1.5470e+00     38.354     0.5057 0.0000e+00
     37.000     8.4822    31.2327    9.68220  101.25351    24.2476 1.5469e+00     37.453     0.5473 0.0000e+00
     36.000     8.4816    31.2284    9.67704  101.24131    24.2437 1.5470e+00     36.420     0.5122 0.0000e+00
     35.000     8.4866    31.2291    9.67132  101.24257    24.2444 1.5471e+00     35.298     0.4912 0.0000e+00
     34.000     8.4911    31.2228    9.66195  101.18215    24.2387 1.5475e+00     34.324     0.5010 0.0000e+00
     33.000     8.4962    31.2174    9.65629  101.19444    24.2339 1.5478e+00     33.470     0.5062 0.0000e+00
     32.000     8.5067    31.2093    9.65579  101.28956    24.2265 1.5482e+00     32.373     0.5035 0.0000e+00
     31.000     8.5181    31.1934    9.64693  101.36180    24.2123 1.5489e+00     31.188     0.4863 0.0000e+00
     30.000     8.5360    31.1808    9.63257  101.28898    24.2010 1.5496e+00     30.281     0.5223 0.0000e+00
     29.000     8.5675    31.1628    9.62923  101.28128    24.1848 1.5508e+00     29.362     0.4939 0.0000e+00
     28.000     8.6076    31.1123    9.62841  101.28161    24.1396 1.5525e+00     28.236     0.5304 0.0000e+00
     27.000     8.6395    31.0719    9.62130  101.22690    24.1026 1.5560e+00     27.237     0.4996 0.0000e+00
     26.000     8.7056    31.0278    9.61694  101.19605    24.0629 1.5628e+00     26.217     0.5306 0.0000e+00
     25.000     8.7744    30.9515    9.62089  101.28268    23.9934 1.5744e+00     25.187     0.5619 0.0000e+00
     24.000     8.8629    30.8750    9.61844  101.28463    23.9238 1.5921e+00     24.210     0.5475 0.0000e+00
     23.000     8.8989    30.7787    9.61464  101.26648    23.8347 1.6197e+00     23.197     0.5680 0.0000e+00
     22.000     8.9057    30.7503    9.60581  101.21163    23.8079 1.6653e+00     22.120     0.5729 0.0000e+00
     21.000     8.9147    30.7437    9.60088  101.18689    23.8017 1.7300e+00     21.189     0.5639 0.0000e+00
     20.000     8.9219    30.7321    9.60849  101.28752    23.7910 1.8199e+00     20.133     0.5862 0.0000e+00
     19.000     8.9308    30.7264    9.61362  101.36454    23.7856 1.9644e+00     19.230     0.5802 0.0000e+00
     18.000     8.9605    30.7139    9.60665  101.33727    23.7742 2.1869e+00     18.075     0.5571 0.0000e+00
     17.000     8.9763    30.6849    9.60416  101.35431    23.7472 2.5258e+00     17.032     0.5342 0.0000e+00
     16.000     8.9869    30.6717    9.60396  101.37813    23.7348 3.0549e+00     16.100     0.5714 0.0000e+00
     15.000     9.0016    30.6607    9.59973  101.36090    23.7245 3.8067e+00     15.115     0.6151 0.0000e+00
     14.000     9.0228    30.6462    9.59990  101.39121    23.7106 5.3002e+00     14.131     0.5935 0.0000e+00
     13.000     9.0324    30.6297    9.59493  101.39783    23.6947 7.5891e+00     13.120     0.5639 0.0000e+00
     12.000     9.0458    30.6210    9.59334  101.46588    23.6863 1.0974e+01     12.064     0.6019 0.0000e+00
     11.000     9.0601    30.6129    9.60385  101.66025    23.6782 1.6811e+01     11.061     0.5589 0.0000e+00
     10.000     9.0817    30.6050    9.59643  101.62252    23.6701 2.5066e+01     10.169     0.5668 0.0000e+00
      9.000     9.1020    30.5892    9.57498  101.63630    23.6540 3.7118e+01      9.065     0.5735 0.0000e+00
      8.000     9.1152    30.5774    9.51538  100.94463    23.6419 5.2732e+01      8.155     0.5926 0.0000e+00
      7.000     9.1308    30.5700   10.62400  100.11833    23.6340 7.7139e+01      7.061     0.6098 0.0000e+00
      6.000     9.1447    30.5618   10.19454  100.18752    23.6254 1.1116e+02      6.126     0.6297 0.0000e+00
      5.000     9.1802    30.5553 -9.990e-29 -9.990e-29    23.6182 1.6070e+02      5.197     0.6635 0.0000e+00
      4.000     9.2254    30.5386 -9.990e-29 -9.990e-29    23.5999 2.2723e+02      4.246     0.6424 0.0000e+00
      3.000     9.2612    30.5169 -9.990e-29 -9.990e-29    23.5767 3.2638e+02      3.422     0.6003 0.0000e+00
      2.000     9.2850    30.4928 -9.990e-29 -9.990e-29    23.5508 4.4900e+02      2.471     0.4635 0.0000e+00
      1.000     9.4107    30.4874 -9.990e-29 -9.990e-29    23.5441 7.6809e+02      1.868     0.3655 0.0000e+00
