* Sea-Bird SBE19plus Data File:
* FileName = C:\data\otf\2007\ctd-07109.hex
* Software Version 1.55
* Temperature SN =  5061
* Conductivity SN =  5061
* System UpLoad Time = Aug 15 2007 16:37:54
* ds
* SeacatPlus V 1.6a  SERIAL NO. 5061    15 Aug 2007  15:31:53
* vbatt = 10.9, vlith =  8.7, ioper =  61.6 ma, ipump =  57.5 ma, 
* iext01 =  95.2 ma
* iext23 =  58.1 ma
* 
* status = not logging
* number of scans to average = 1
* samples = 153039, free = 288466, casts = 154
* mode = profile, minimum cond freq = 3000, pump delay = 60 sec
* autorun = no, ignore magnetic switch = no
* battery type = alkaline, battery cutoff =  7.3 volts
* pressure sensor = strain gauge, range = 870.0
* SBE 38 = no, Gas Tension Device = no
* Ext Volt 0 = yes, Ext Volt 1 = yes, Ext Volt 2 = yes, Ext Volt 3 = yes
* echo commands = yes
* output format = raw HEX
* S>
* 
* SeacatPlus V 1.6a  SERIAL NO. 5061    15 Aug 2007  15:32:18
* temperature:  05-oct-06
*     TA0 = 1.254184e-03
*     TA1 = 2.596730e-04
*     TA2 = 5.165612e-07
*     TA3 = 1.318931e-07
*     TOFFSET = 0.000000e+00
* conductivity:  05-oct-06
*     G = -9.978144e-01
*     H = 1.555200e-01
*     I = -4.839108e-04
*     J = 6.121100e-05
*     CF0 = 2.539936e+03
*     CPCOR = -9.570000e-08
*     CTCOR = 3.250000e-06
*     CSLOPE = 1.000000e+00
* pressure S/N = 2362539, range = 870 psia:  24-aug-06
*     PA0 = 2.171091e-01
*     PA1 = 2.647085e-03
*     PA2 = 1.419397e-11
*     PTCA0 = 5.242437e+05
*     PTCA1 = 7.545345e+00
*     PTCA2 = -1.835354e-01
*     PTCB0 = 2.537125e+01
*     PTCB1 = -1.750000e-03
*     PTCB2 = 0.000000e+00
*     PTEMPA0 = -5.753989e+01
*     PTEMPA1 = 5.235813e+01
*     PTEMPA2 = -4.015521e-02
*     POFFSET = 0.000000e+00
* volt 0: offset = -4.682842e-02, slope = 1.249147e+00
* volt 1: offset = -4.695158e-02, slope = 1.248145e+00
* volt 2: offset = -4.685263e-02, slope = 1.248783e+00
* volt 3: offset = -4.690316e-02, slope = 1.249508e+00
*     EXTFREQSF = 1.000002e+00
* dh
* cast 109 21 Jul 2007 12:34:53 samples 70559 to 71816, avg = 1, stop = mag switch
* S> 
# nquan = 10
# nvalues = 153                         
# units = specified
# name 0 = depSM: Depth [salt water, m]
# name 1 = tv290C: Temperature [ITS-90, deg C]
# name 2 = sal00: Salinity [PSU]
# name 3 = sbeox0Mg/L: Oxygen, SBE 43 [mg/l]
# name 4 = sbeox0PS: Oxygen, SBE 43 [% saturation]
# name 5 = sigma-t00: Density [sigma-t, Kg/m^3 ]
# name 6 = par: PAR/Irradiance, Biospherical/Licor
# name 7 = prdM: Pressure, Strain Gauge [db]
# name 8 = flECO-AFL: Fluorescence, Wetlab ECO-AFL/FL [mg/m^3]
# name 9 = flag: flag
# span 0 =      1.000,     79.000       
# span 1 =     8.6458,    10.5675       
# span 2 =    30.0242,    31.3528       
# span 3 =    8.42302,    9.57308       
# span 4 =   90.81777,  101.27481       
# span 5 =    22.9914,    24.3167       
# span 6 = 1.5435e+00, 2.3984e+03       
# span 7 =      1.062,     79.594       
# span 8 =     0.3974,     0.8285       
# span 9 = 0.0000e+00, 0.0000e+00       
# interval = meters: 1                  
# start_time = Jul 21 2007 12:34:53
# bad_flag = -9.990e-29
# sensor 0 = Frequency 0  temperature, 5061, 05-Oct-06
# sensor 1 = Frequency 1  conductivity, 5061, 05-Oct-06, cpcor = -9.5700e-08
# sensor 2 = Pressure Number
# sensor 3 = Extrnl Volt  0  irradiance (PAR), primary, 4751, 08/10/06
# sensor 4 = Extrnl Volt  1  Oxygen, SBE, primary, 1081, 10/24/06
# sensor 5 = Extrnl Volt  2  WET Labs, ECO_AFL
# sensor 6 = Extrnl Volt  3  userpoly 0, 0627, 10/11/06
# datcnv_date = Oct 15 2007 14:49:48, 5.37e
# datcnv_in = I:\bob d\OTF_GEM\2007\ctd-07109.hex I:\Willette\OTF\CTD\5061.con
# datcnv_skipover = 0
# filter_date = Oct 15 2007 15:02:30, 5.37e
# filter_in = I:\Willette\OTF\CTD\2007\CTD Data\ctd-07109.cnv
# filter_low_pass_tc_A = 1.000
# filter_low_pass_tc_B = 0.150
# filter_low_pass_A_vars = prdM
# filter_low_pass_B_vars =
# loopedit_date = Oct 15 2007 15:06:51, 5.37e
# loopedit_in = I:\Willette\OTF\CTD\2007\CTD Data\ctd-07109.cnv
# loopedit_minVelocity = 0.250                                                                                            
# loopedit_surfaceSoak: minDepth = 5.0, maxDepth = 20, useDeckPress = 1                                                   
# loopedit_excl_bad_scans = yes
# alignctd_date = Oct 15 2007 15:14:18, 5.37e
# alignctd_in = I:\Willette\OTF\CTD\2007\CTD Data\ctd-07109.cnv
# alignctd_adv = tv290C 0.500, sbeox0Mg/L 4.000, sbeox0PS 4.000                                                                                                                                                                      
# binavg_date = Oct 15 2007 15:18:47, 5.37e
# binavg_in = I:\Willette\OTF\CTD\2007\CTD Data\ctd-07109.cnv
# binavg_bintype = meters
# binavg_binsize = 1
# binavg_excl_bad_scans = yes
# binavg_skipover = 0
# binavg_surface_bin = no, min = 0.000, max = 0.000, value = 0.000
# file_type = ascii
*END*
      5.000    10.2622    30.1237    8.42302   90.81777    23.0907 3.7549e+02      5.109     0.5907 0.0000e+00
      6.000    10.1917    30.2133    8.48882   91.50749    23.1809 2.7057e+02      5.994     0.6194 0.0000e+00
      7.000    10.1675    30.2597    8.54110   92.03662    23.2244 1.8766e+02      7.010     0.7056 0.0000e+00
      8.000    10.1429    30.2790    8.55352   92.12604    23.2433 1.2605e+02      8.086     0.7698 0.0000e+00
      9.000    10.1241    30.3147    8.60490   92.64218    23.2747 8.9307e+01      9.066     0.7972 0.0000e+00
     10.000    10.0963    30.3421    8.68365   93.48174    23.3001 6.4926e+01     10.064     0.8285 0.0000e+00
     11.000    10.0755    30.3497    8.69783   93.59424    23.3097 4.6758e+01     11.215     0.7440 0.0000e+00
     12.000    10.0554    30.3455    8.76913   94.27883    23.3098 3.4362e+01     12.150     0.7207 0.0000e+00
     13.000    10.0522    30.3579    8.80289   94.47037    23.3210 2.5328e+01     13.163     0.7123 0.0000e+00
     14.000    10.0439    30.3491    8.86449   94.99992    23.3149 1.8875e+01     14.224     0.7205 0.0000e+00
     15.000    10.0225    30.3396    8.93864   95.67015    23.3094 1.4399e+01     15.163     0.7155 0.0000e+00
     16.000     9.9633    30.3542    9.00584   96.32832    23.3269 1.0854e+01     16.160     0.6922 0.0000e+00
     17.000     9.8847    30.3711    9.07035   96.92242    23.3517 8.2731e+00     17.208     0.6218 0.0000e+00
     18.000     9.8246    30.4110    9.10866   97.19341    23.3933 6.5028e+00     18.123     0.6188 0.0000e+00
     19.000     9.7449    30.4771    9.14599   97.52570    23.4568 5.1125e+00     19.144     0.6262 0.0000e+00
     20.000     9.7066    30.5254    9.18784   97.92036    23.5048 4.2014e+00     20.232     0.6126 0.0000e+00
     21.000     9.6535    30.5439    9.21683   98.15878    23.5238 3.5584e+00     21.166     0.6017 0.0000e+00
     22.000     9.5668    30.6114    9.23833   98.31001    23.5892 3.0471e+00     22.105     0.6211 0.0000e+00
     23.000     9.5232    30.6794    9.26296   98.49925    23.6545 2.6607e+00     23.220     0.6123 0.0000e+00
     24.000     9.4899    30.6951    9.28184   98.63638    23.6707 2.4198e+00     24.208     0.6078 0.0000e+00
     25.000     9.4374    30.7252    9.29663   98.73683    23.7015 2.2225e+00     25.175     0.6060 0.0000e+00
     26.000     9.3854    30.7683    9.31402   98.85667    23.7445 2.0646e+00     26.302     0.6295 0.0000e+00
     27.000     9.3466    30.7961    9.32517   98.90314    23.7722 1.9511e+00     27.310     0.6137 0.0000e+00
     28.000     9.3129    30.8226    9.33953   98.96618    23.7984 1.8619e+00     28.358     0.6005 0.0000e+00
     29.000     9.2838    30.8445    9.35388   99.04949    23.8202 1.7963e+00     29.313     0.5860 0.0000e+00
     30.000     9.2593    30.8651    9.36735   99.12743    23.8402 1.7422e+00     30.278     0.6195 0.0000e+00
     31.000     9.2195    30.8871    9.37980   99.19602    23.8617 1.6998e+00     31.254     0.6010 0.0000e+00
     32.000     9.1730    30.9296    9.38631   99.22807    23.9028 1.6669e+00     32.264     0.6014 0.0000e+00
     33.000     9.1268    30.9646    9.39393   99.28976    23.9367 1.6408e+00     33.271     0.5995 0.0000e+00
     34.000     9.0847    31.0051    9.40426   99.35207    23.9753 1.6203e+00     34.207     0.6083 0.0000e+00
     35.000     9.0401    31.0524    9.42169   99.49867    24.0205 1.6047e+00     35.323     0.6221 0.0000e+00
     36.000     9.0233    31.0705    9.43341   99.59390    24.0380 1.5933e+00     36.409     0.6330 0.0000e+00
     37.000     8.9948    31.0908    9.44219   99.66172    24.0573 1.5845e+00     37.342     0.6209 0.0000e+00
     38.000     8.9769    31.1114    9.45430   99.75097    24.0772 1.5768e+00     38.351     0.6436 0.0000e+00
     39.000     8.9612    31.1242    9.45917   99.76525    24.0895 1.5706e+00     39.400     0.6624 0.0000e+00
     40.000     8.9437    31.1407    9.47017   99.84389    24.1052 1.5662e+00     40.505     0.6948 0.0000e+00
     41.000     8.9268    31.1544    9.46516   99.77952    24.1178 1.5625e+00     41.331     0.6792 0.0000e+00
     42.000     8.9066    31.1737    9.45785   99.68114    24.1364 1.5589e+00     42.363     0.6881 0.0000e+00
     43.000     8.8877    31.1832    9.47081   99.79248    24.1466 1.5563e+00     43.414     0.6774 0.0000e+00
     44.000     8.8756    31.1948    9.48201   99.89606    24.1582 1.5543e+00     44.392     0.6733 0.0000e+00
     45.000     8.8636    31.1999    9.48973   99.96423    24.1636 1.5526e+00     45.508     0.6786 0.0000e+00
     46.000     8.8511    31.2081    9.49649  100.02962    24.1721 1.5512e+00     46.471     0.6682 0.0000e+00
     47.000     8.8429    31.2131    9.50025  100.06292    24.1775 1.5500e+00     47.403     0.6586 0.0000e+00
     48.000     8.8376    31.2167    9.50726  100.12023    24.1812 1.5488e+00     48.479     0.6526 0.0000e+00
     49.000     8.8335    31.2192    9.51020  100.13461    24.1841 1.5480e+00     49.495     0.6393 0.0000e+00
     50.000     8.8304    31.2204    9.51186  100.14753    24.1855 1.5473e+00     50.475     0.6301 0.0000e+00
     51.000     8.8251    31.2220    9.51618  100.18835    24.1872 1.5472e+00     51.483     0.6412 0.0000e+00
     52.000     8.8153    31.2244    9.51278  100.14469    24.1904 1.5463e+00     52.517     0.6355 0.0000e+00
     53.000     8.8111    31.2283    9.51079  100.11092    24.1945 1.5468e+00     53.465     0.6119 0.0000e+00
     54.000     8.8091    31.2298    9.51109  100.09445    24.1961 1.5459e+00     54.475     0.6041 0.0000e+00
     55.000     8.8054    31.2306    9.50836  100.03694    24.1971 1.5454e+00     55.654     0.6135 0.0000e+00
     56.000     8.8005    31.2308    9.51115  100.05008    24.1978 1.5452e+00     56.513     0.6250 0.0000e+00
     57.000     8.7927    31.2344    9.51951  100.12633    24.2016 1.5450e+00     57.437     0.6131 0.0000e+00
     58.000     8.7778    31.2404    9.52618  100.17378    24.2083 1.5447e+00     58.603     0.5987 0.0000e+00
     59.000     8.7659    31.2489    9.52834  100.16576    24.2168 1.5446e+00     59.566     0.5715 0.0000e+00
     60.000     8.7578    31.2564    9.53029  100.14345    24.2242 1.5441e+00     60.579     0.5876 0.0000e+00
     61.000     8.7483    31.2618    9.53162  100.13164    24.2297 1.5444e+00     61.559     0.5969 0.0000e+00
     62.000     8.7323    31.2713    9.53214  100.11150    24.2390 1.5443e+00     62.575     0.5755 0.0000e+00
     63.000     8.7064    31.2879    9.53031  100.06836    24.2554 1.5447e+00     63.646     0.5808 0.0000e+00
     64.000     8.6899    31.3070    9.53370  100.09876    24.2736 1.5442e+00     64.610     0.6139 0.0000e+00
     65.000     8.6748    31.3196    9.54036  100.16204    24.2852 1.5438e+00     65.583     0.6057 0.0000e+00
     66.000     8.6577    31.3433    9.54443  100.20061    24.3071 1.5441e+00     66.616     0.6117 0.0000e+00
     67.000     8.6543    31.3473    9.54411  100.19746    24.3112 1.5441e+00     67.695     0.6398 0.0000e+00
     68.000     8.6507    31.3484    9.53586  100.11160    24.3123 1.5441e+00     68.648     0.6300 0.0000e+00
     69.000     8.6488    31.3507    9.53973  100.15101    24.3148 1.5435e+00     69.592     0.6406 0.0000e+00
     70.000     8.6481    31.3518    9.54644  100.22050    24.3158 1.5440e+00     70.694     0.6390 0.0000e+00
     71.000     8.6490    31.3510    9.54966  100.25070    24.3150 1.5439e+00     71.730     0.6231 0.0000e+00
     72.000     8.6483    31.3510    9.55223  100.27762    24.3150 1.5439e+00     72.643     0.6338 0.0000e+00
     73.000     8.6479    31.3515    9.55507  100.31092    24.3156 1.5438e+00     73.724     0.6463 0.0000e+00
     74.000     8.6466    31.3510    9.56256  100.38676    24.3153 1.5438e+00     74.707     0.6603 0.0000e+00
     75.000     8.6458    31.3514    9.56060  100.36673    24.3159 1.5438e+00     75.684     0.6552 0.0000e+00
     76.000     8.6479    31.3528    9.55503  100.30753    24.3167 1.5440e+00     76.767     0.6468 0.0000e+00
     77.000     8.6468    31.3510    9.56406  100.40246    24.3153 1.5439e+00     77.661     0.6551 0.0000e+00
     78.000     8.6468    31.3514    9.55756  100.33920    24.3158 1.5439e+00     78.644     0.6398 0.0000e+00
     79.000     8.6486    31.3507    9.54685  100.22710    24.3148 1.5442e+00     79.594     0.6903 0.0000e+00
     78.000     8.6503    31.3505    9.56213  100.38912    24.3144 1.5441e+00     78.683     0.6538 0.0000e+00
     77.000     8.6504    31.3506    9.56914  100.46886    24.3146 1.5435e+00     77.738     0.6442 0.0000e+00
     76.000     8.6496    31.3510    9.57243  100.50388    24.3149 1.5437e+00     76.696     0.6768 0.0000e+00
     75.000     8.6536    31.3500    9.56684  100.44755    24.3138 1.5438e+00     75.726     0.6802 0.0000e+00
     74.000     8.6533    31.3484    9.56755  100.45209    24.3123 1.5438e+00     74.723     0.6802 0.0000e+00
     73.000     8.6542    31.3489    9.56826  100.46023    24.3126 1.5439e+00     73.682     0.6620 0.0000e+00
     72.000     8.6529    31.3490    9.57308  100.52370    24.3129 1.5441e+00     72.699     0.6734 0.0000e+00
     71.000     8.6541    31.3477    9.57277  100.52917    24.3118 1.5441e+00     71.693     0.6608 0.0000e+00
     70.000     8.6621    31.3418    9.56958  100.48557    24.3062 1.5443e+00     70.664     0.6337 0.0000e+00
     69.000     8.6669    31.3352    9.57204  100.51933    24.3001 1.5439e+00     69.659     0.6264 0.0000e+00
     68.000     8.6606    31.3399    9.57214  100.52124    24.3044 1.5439e+00     68.657     0.6428 0.0000e+00
     67.000     8.6654    31.3370    9.56922  100.49169    24.3019 1.5443e+00     67.661     0.6115 0.0000e+00
     66.000     8.6654    31.3362    9.57111  100.54951    24.3009 1.5443e+00     66.587     0.6370 0.0000e+00
     65.000     8.6668    31.3377    9.57129  100.56484    24.3023 1.5442e+00     65.673     0.6375 0.0000e+00
     64.000     8.6909    31.3135    9.56501  100.53561    24.2803 1.5444e+00     64.598     0.6213 0.0000e+00
     63.000     8.7004    31.3037    9.56428  100.56227    24.2708 1.5440e+00     63.593     0.5898 0.0000e+00
     62.000     8.7213    31.2897    9.56536  100.59860    24.2572 1.5440e+00     62.601     0.5992 0.0000e+00
     61.000     8.7406    31.2737    9.56065  100.56399    24.2415 1.5445e+00     61.577     0.6014 0.0000e+00
     60.000     8.7534    31.2626    9.55888  100.55312    24.2307 1.5444e+00     60.609     0.5856 0.0000e+00
     59.000     8.7609    31.2563    9.55838  100.56952    24.2244 1.5448e+00     59.543     0.5740 0.0000e+00
     58.000     8.7658    31.2538    9.55556  100.55934    24.2218 1.5447e+00     58.575     0.5826 0.0000e+00
     57.000     8.7780    31.2467    9.55589  100.58383    24.2145 1.5448e+00     57.532     0.5879 0.0000e+00
     56.000     8.7894    31.2404    9.55543  100.59003    24.2080 1.5451e+00     56.554     0.5824 0.0000e+00
     55.000     8.7982    31.2342    9.55403  100.58350    24.2016 1.5457e+00     55.545     0.5961 0.0000e+00
     54.000     8.8043    31.2312    9.55429  100.59782    24.1982 1.5457e+00     54.478     0.5790 0.0000e+00
     53.000     8.8079    31.2298    9.55940  100.65749    24.1966 1.5460e+00     53.546     0.5885 0.0000e+00
     52.000     8.8133    31.2279    9.55827  100.65654    24.1943 1.5463e+00     52.472     0.6091 0.0000e+00
     51.000     8.8170    31.2268    9.55505  100.62930    24.1929 1.5470e+00     51.491     0.6245 0.0000e+00
     50.000     8.8213    31.2246    9.55979  100.69406    24.1904 1.5477e+00     50.503     0.6130 0.0000e+00
     49.000     8.8265    31.2230    9.55587  100.67299    24.1885 1.5484e+00     49.427     0.6124 0.0000e+00
     48.000     8.8344    31.2197    9.54840  100.61236    24.1848 1.5491e+00     48.497     0.6194 0.0000e+00
     47.000     8.8454    31.2156    9.55360  100.68928    24.1800 1.5504e+00     47.418     0.6301 0.0000e+00
     46.000     8.8553    31.2099    9.56179  100.79254    24.1741 1.5520e+00     46.446     0.6526 0.0000e+00
     45.000     8.8663    31.2022    9.56401  100.83812    24.1663 1.5531e+00     45.412     0.6559 0.0000e+00
     44.000     8.8766    31.1961    9.56526  100.85848    24.1601 1.5550e+00     44.488     0.6420 0.0000e+00
     43.000     8.8865    31.1877    9.56787  100.91321    24.1517 1.5571e+00     43.372     0.6443 0.0000e+00
     42.000     8.8915    31.1856    9.56365  100.90778    24.1495 1.5600e+00     42.384     0.6622 0.0000e+00
     41.000     8.9138    31.1703    9.56135  100.92410    24.1347 1.5633e+00     41.398     0.6662 0.0000e+00
     40.000     8.9360    31.1513    9.56317  100.96660    24.1165 1.5676e+00     40.387     0.6433 0.0000e+00
     39.000     8.9595    31.1266    9.55932  100.96063    24.0933 1.5728e+00     39.376     0.6388 0.0000e+00
     38.000     8.9725    31.1157    9.55282  100.93853    24.0829 1.5795e+00     38.378     0.6874 0.0000e+00
     37.000     8.9989    31.0943    9.55018  100.94506    24.0624 1.5874e+00     37.305     0.6180 0.0000e+00
     36.000     9.0207    31.0742    9.53878  100.86952    24.0432 1.5975e+00     36.350     0.6302 0.0000e+00
     35.000     9.0423    31.0570    9.52806  100.78914    24.0267 1.6103e+00     35.332     0.6120 0.0000e+00
     34.000     9.0697    31.0311    9.53335  100.85904    24.0021 1.6255e+00     34.343     0.5948 0.0000e+00
     33.000     9.0810    31.0176    9.53655  100.93118    23.9891 1.6454e+00     33.279     0.5714 0.0000e+00
     32.000     9.0934    31.0102    9.53258  100.96198    23.9821 1.6702e+00     32.339     0.5670 0.0000e+00
     31.000     9.1203    30.9899    9.52983  101.00643    23.9628 1.7025e+00     31.277     0.5617 0.0000e+00
     30.000     9.1689    30.9473    9.52478  101.04178    23.9221 1.7450e+00     30.278     0.5496 0.0000e+00
     29.000     9.2090    30.9161    9.51386  100.99536    23.8919 1.7979e+00     29.262     0.5485 0.0000e+00
     28.000     9.2554    30.8772    9.51147  101.03440    23.8541 1.8690e+00     28.301     0.5373 0.0000e+00
     27.000     9.2953    30.8419    9.51471  101.16009    23.8197 1.9601e+00     27.166     0.5525 0.0000e+00
     26.000     9.3313    30.8196    9.50473  101.10790    23.7976 2.0762e+00     26.286     0.5494 0.0000e+00
     25.000     9.3750    30.7846    9.50382  101.18926    23.7630 2.2323e+00     25.203     0.5487 0.0000e+00
     24.000     9.4112    30.7611    9.50031  101.19972    23.7394 2.4378e+00     24.229     0.5384 0.0000e+00
     23.000     9.4544    30.7315    9.48619  101.09315    23.7093 2.7067e+00     23.210     0.5610 0.0000e+00
     22.000     9.4807    30.7117    9.48456  101.10916    23.6894 3.0681e+00     22.210     0.5778 0.0000e+00
     21.000     9.5022    30.6941    9.49023  101.26084    23.6719 3.5376e+00     21.224     0.5585 0.0000e+00
     20.000     9.5249    30.6756    9.47336  101.23083    23.6541 4.1559e+00     20.131     0.5437 0.0000e+00
     19.000     9.5848    30.6342    9.46412  101.23766    23.6147 5.0799e+00     19.199     0.5379 0.0000e+00
     18.000     9.6625    30.5682    9.45501  101.27481    23.5502 6.2847e+00     18.144     0.5720 0.0000e+00
     17.000     9.7256    30.5235    9.43610  101.16113    23.5064 8.0533e+00     17.191     0.5570 0.0000e+00
     16.000     9.8080    30.4456    9.41582  101.09608    23.4313 1.0499e+01     16.101     0.5762 0.0000e+00
     15.000     9.8575    30.4101    9.40208  101.01353    23.3964 1.3917e+01     15.155     0.5542 0.0000e+00
     14.000     9.9284    30.3575    9.39109  100.95604    23.3437 1.8779e+01     14.173     0.5687 0.0000e+00
     13.000     9.9772    30.3274    9.37976  100.90765    23.3112 2.5650e+01     13.031     0.6399 0.0000e+00
     12.000     9.9987    30.3185    9.37018  100.83465    23.3004 3.3608e+01     12.185     0.6295 0.0000e+00
     11.000    10.0308    30.3116    9.36990  100.89998    23.2898 4.7558e+01     11.123     0.6328 0.0000e+00
     10.000    10.0538    30.3097    9.36784  100.91910    23.2848 6.6214e+01     10.092     0.6456 0.0000e+00
      9.000    10.0833    30.3044    9.35727  100.79420    23.2758 9.0309e+01      9.104     0.7126 0.0000e+00
      8.000    10.1044    30.2863    9.34524  100.65819    23.2576 1.3026e+02      8.054     0.7651 0.0000e+00
      7.000    10.1078    30.2583    9.34667  100.69760    23.2349 1.8428e+02      7.095     0.7590 0.0000e+00
      6.000    10.1161    30.2210    9.33431  100.64366    23.2047 2.6635e+02      6.038     0.6830 0.0000e+00
      5.000    10.1383    30.1922    9.32080  100.65955    23.1796 3.8219e+02      5.057     0.5673 0.0000e+00
      4.000    10.1917    30.1573    9.30151  100.57924    23.1454 5.5428e+02      4.041     0.5205 0.0000e+00
      3.000    10.2839    30.0967    9.28303  100.81070    23.0832 7.9424e+02      2.993     0.4868 0.0000e+00
      2.000    10.3419    30.0707    9.24876  100.97617    23.0548 1.1187e+03      2.053     0.4677 0.0000e+00
      1.000    10.5675    30.0242    9.42434   99.61151    22.9914 2.3984e+03      1.062     0.3974 0.0000e+00
