* Sea-Bird SBE19plus Data File:
* FileName = C:\data\otf\2007\ctd-07035.hex
* Software Version 1.55
* Temperature SN =  5061
* Conductivity SN =  5061
* System UpLoad Time = Aug 15 2007 16:05:42
* ds
* SeacatPlus V 1.6a  SERIAL NO. 5061    15 Aug 2007  15:31:53
* vbatt = 10.9, vlith =  8.7, ioper =  61.6 ma, ipump =  57.5 ma, 
* iext01 =  95.2 ma
* iext23 =  58.1 ma
* 
* status = not logging
* number of scans to average = 1
* samples = 153039, free = 288466, casts = 154
* mode = profile, minimum cond freq = 3000, pump delay = 60 sec
* autorun = no, ignore magnetic switch = no
* battery type = alkaline, battery cutoff =  7.3 volts
* pressure sensor = strain gauge, range = 870.0
* SBE 38 = no, Gas Tension Device = no
* Ext Volt 0 = yes, Ext Volt 1 = yes, Ext Volt 2 = yes, Ext Volt 3 = yes
* echo commands = yes
* output format = raw HEX
* S>
* 
* SeacatPlus V 1.6a  SERIAL NO. 5061    15 Aug 2007  15:32:18
* temperature:  05-oct-06
*     TA0 = 1.254184e-03
*     TA1 = 2.596730e-04
*     TA2 = 5.165612e-07
*     TA3 = 1.318931e-07
*     TOFFSET = 0.000000e+00
* conductivity:  05-oct-06
*     G = -9.978144e-01
*     H = 1.555200e-01
*     I = -4.839108e-04
*     J = 6.121100e-05
*     CF0 = 2.539936e+03
*     CPCOR = -9.570000e-08
*     CTCOR = 3.250000e-06
*     CSLOPE = 1.000000e+00
* pressure S/N = 2362539, range = 870 psia:  24-aug-06
*     PA0 = 2.171091e-01
*     PA1 = 2.647085e-03
*     PA2 = 1.419397e-11
*     PTCA0 = 5.242437e+05
*     PTCA1 = 7.545345e+00
*     PTCA2 = -1.835354e-01
*     PTCB0 = 2.537125e+01
*     PTCB1 = -1.750000e-03
*     PTCB2 = 0.000000e+00
*     PTEMPA0 = -5.753989e+01
*     PTEMPA1 = 5.235813e+01
*     PTEMPA2 = -4.015521e-02
*     POFFSET = 0.000000e+00
* volt 0: offset = -4.682842e-02, slope = 1.249147e+00
* volt 1: offset = -4.695158e-02, slope = 1.248145e+00
* volt 2: offset = -4.685263e-02, slope = 1.248783e+00
* volt 3: offset = -4.690316e-02, slope = 1.249508e+00
*     EXTFREQSF = 1.000002e+00
* dh
* cast  35 08 Jul 2007 07:29:06 samples 38522 to 38846, avg = 4, stop = mag switch
* S> 
# nquan = 10
# nvalues = 157                         
# units = specified
# name 0 = depSM: Depth [salt water, m]
# name 1 = tv290C: Temperature [ITS-90, deg C]
# name 2 = sal00: Salinity [PSU]
# name 3 = sbeox0Mg/L: Oxygen, SBE 43 [mg/l]
# name 4 = sbeox0PS: Oxygen, SBE 43 [% saturation]
# name 5 = sigma-t00: Density [sigma-t, Kg/m^3 ]
# name 6 = par: PAR/Irradiance, Biospherical/Licor
# name 7 = prdM: Pressure, Strain Gauge [db]
# name 8 = flECO-AFL: Fluorescence, Wetlab ECO-AFL/FL [mg/m^3]
# name 9 = flag: flag
# span 0 =      1.000,     81.000       
# span 1 =     8.1896,     9.3264       
# span 2 =    30.2114,    31.2740       
# span 3 =    9.36166,   11.19256       
# span 4 =   98.78365,  104.83266       
# span 5 =    23.3244,    24.3219       
# span 6 = 1.5478e+00, 1.0076e+02       
# span 7 =      1.905,     80.076       
# span 8 =     0.4062,     0.8048       
# span 9 = 0.0000e+00, 0.0000e+00       
# interval = meters: 1                  
# start_time = Jul 08 2007 07:29:06
# bad_flag = -9.990e-29
# sensor 0 = Frequency 0  temperature, 5061, 05-Oct-06
# sensor 1 = Frequency 1  conductivity, 5061, 05-Oct-06, cpcor = -9.5700e-08
# sensor 2 = Pressure Number
# sensor 3 = Extrnl Volt  0  irradiance (PAR), primary, 4751, 08/10/06
# sensor 4 = Extrnl Volt  1  Oxygen, SBE, primary, 1081, 10/24/06
# sensor 5 = Extrnl Volt  2  WET Labs, ECO_AFL
# sensor 6 = Extrnl Volt  3  userpoly 0, 0627, 10/11/06
# datcnv_date = Oct 15 2007 14:49:44, 5.37e
# datcnv_in = I:\bob d\OTF_GEM\2007\ctd-07035.hex I:\Willette\OTF\CTD\5061.con
# datcnv_skipover = 0
# filter_date = Oct 15 2007 15:02:23, 5.37e
# filter_in = I:\Willette\OTF\CTD\2007\CTD Data\ctd-07035.cnv
# filter_low_pass_tc_A = 1.000
# filter_low_pass_tc_B = 0.150
# filter_low_pass_A_vars = prdM
# filter_low_pass_B_vars =
# loopedit_date = Oct 15 2007 15:06:46, 5.37e
# loopedit_in = I:\Willette\OTF\CTD\2007\CTD Data\ctd-07035.cnv
# loopedit_minVelocity = 0.250                                                                                            
# loopedit_surfaceSoak: minDepth = 5.0, maxDepth = 20, useDeckPress = 1                                                   
# loopedit_excl_bad_scans = yes
# alignctd_date = Oct 15 2007 15:14:14, 5.37e
# alignctd_in = I:\Willette\OTF\CTD\2007\CTD Data\ctd-07035.cnv
# alignctd_adv = tv290C 0.500, sbeox0Mg/L 4.000, sbeox0PS 4.000                                                                                                                                                                      
# binavg_date = Oct 15 2007 15:18:43, 5.37e
# binavg_in = I:\Willette\OTF\CTD\2007\CTD Data\ctd-07035.cnv
# binavg_bintype = meters
# binavg_binsize = 1
# binavg_excl_bad_scans = yes
# binavg_skipover = 0
# binavg_surface_bin = no, min = 0.000, max = 0.000, value = 0.000
# file_type = ascii
*END*
      5.000     9.2664    30.2440    9.36166   98.78365    23.3553 1.8613e+01      5.075     0.5425 0.0000e+00
      6.000     9.2629    30.2487    9.46044   99.79123    23.3597 1.3396e+01      6.069     0.5260 0.0000e+00
      7.000     9.2596    30.2553    9.53617  100.50035    23.3656 9.5692e+00      7.491     0.5009 0.0000e+00
      8.000     9.2538    30.2581    9.57977  100.92705    23.3681 7.2000e+00      8.506     0.4988 0.0000e+00
      9.000     9.2000    30.2438    9.60701  101.12221    23.3551 5.4117e+00      9.736     0.4953 0.0000e+00
     10.000     9.1996    30.2838    9.61585  101.23097    23.3929 4.2268e+00     10.303     0.5075 0.0000e+00
     11.000     9.1812    30.3024    9.65632  101.60464    23.4109 3.3539e+00     11.219     0.5080 0.0000e+00
     12.000     9.1725    30.3125    9.62548  101.24913    23.4203 2.7787e+00     11.905     0.4871 0.0000e+00
     13.000     9.1588    30.3337    9.67664  101.78206    23.4398 2.3572e+00     12.914     0.4661 0.0000e+00
     14.000     9.1515    30.3498    9.67309  101.73492    23.4543 2.0995e+00     13.870     0.4864 0.0000e+00
     15.000     9.1256    30.3639    9.69266  101.93684    23.4675 1.9137e+00     14.988     0.4951 0.0000e+00
     16.000     9.0899    30.3871    9.70689  102.07480    23.4887 1.8079e+00     15.989     0.4789 0.0000e+00
     17.000     9.0570    30.4344    9.73538  102.34160    23.5333 1.7201e+00     17.463     0.4968 0.0000e+00
     18.000     9.0196    30.4458    9.68651  101.81076    23.5439 1.6695e+00     18.290     0.4829 0.0000e+00
     19.000     9.0134    30.4757    9.73500  102.30139    23.5726 1.6344e+00     19.285     0.4474 0.0000e+00
     20.000     8.9730    30.4958    9.68586  101.72123    23.5919 1.6057e+00     20.357     0.4638 0.0000e+00
     21.000     8.9542    30.4909    9.78265  102.67282    23.5875 1.5913e+00     21.120     0.4546 0.0000e+00
     22.000     8.9611    30.5342    9.74882  102.07712    23.6287 1.5787e+00     22.204     0.4517 0.0000e+00
     23.000     8.9590    30.5341    9.75343  102.04350    23.6288 1.5720e+00     23.017     0.4523 0.0000e+00
     24.000     8.9495    30.5401    9.78742  102.31237    23.6345 1.5646e+00     24.435     0.4634 0.0000e+00
     25.000     8.9493    30.5415    9.77925  102.22899    23.6361 1.5610e+00     25.320     0.4673 0.0000e+00
     26.000     8.9336    30.5458    9.81032  102.55406    23.6402 1.5578e+00     26.143     0.4375 0.0000e+00
     27.000     8.9189    30.5582    9.79877  102.43423    23.6520 1.5557e+00     27.321     0.4426 0.0000e+00
     28.000     8.9011    30.5690    9.82787  102.73012    23.6622 1.5544e+00     28.353     0.4494 0.0000e+00
     29.000 -9.990e-29 -9.990e-29 -9.990e-29 -9.990e-29 -9.990e-29 -9.990e-29 -9.990e-29 -9.990e-29 -9.990e-29
     30.000     8.8020    30.6001    9.83577  102.77535    23.6914 1.5528e+00     30.063     0.4427 0.0000e+00
     31.000     8.6810    30.6880    9.84115  102.74955    23.7736 1.5523e+00     31.434     0.4230 0.0000e+00
     32.000     8.6277    30.7765    9.84417  102.74306    23.8571 1.5517e+00     32.389     0.4074 0.0000e+00
     33.000     8.5974    30.8346    9.84279  102.69103    23.9120 1.5518e+00     33.604     0.4308 0.0000e+00
     34.000     8.5978    30.8584    9.84595  102.69736    23.9350 1.5515e+00     34.355     0.4112 0.0000e+00
     35.000     8.5973    30.8682    9.84808  102.69190    23.9445 1.5514e+00     35.477     0.4062 0.0000e+00
     36.000     8.5978    30.8682    9.84648  102.64661    23.9448 1.5512e+00     36.550     0.4235 0.0000e+00
     37.000     8.5981    30.8676    9.84666  102.61368    23.9442 1.5513e+00     37.462     0.4293 0.0000e+00
     38.000     8.5929    30.8668    9.85325  102.62698    23.9434 1.5510e+00     38.590     0.4274 0.0000e+00
     39.000     8.5828    30.8651    9.85399  102.59148    23.9422 1.5516e+00     39.597     0.4168 0.0000e+00
     40.000     8.5695    30.8743    9.85516  102.59548    23.9506 1.5510e+00     40.459     0.4454 0.0000e+00
     41.000     8.5282    30.8883    9.86576  102.67257    23.9637 1.5511e+00     41.831     0.4451 0.0000e+00
     42.000     8.5052    30.9016    9.87527  102.76232    23.9760 1.5511e+00     42.511     0.4446 0.0000e+00
     43.000     8.4986    30.9291    9.86980  102.70855    24.0015 1.5511e+00     43.259     0.4438 0.0000e+00
     44.000     8.4778    30.9605    9.87519  102.69617    24.0312 1.5510e+00     44.606     0.4451 0.0000e+00
     45.000     8.4619    30.9695    9.85834  102.51915    24.0395 1.5509e+00     45.502     0.4460 0.0000e+00
     46.000     8.4530    30.9844    9.85787  102.50686    24.0534 1.5506e+00     46.310     0.4344 0.0000e+00
     47.000     8.4367    31.0025    9.85686  102.49101    24.0703 1.5509e+00     47.422     0.4294 0.0000e+00
     48.000     8.4230    31.0110    9.86954  102.62284    24.0782 1.5509e+00     48.415     0.4430 0.0000e+00
     49.000     8.4018    31.0256    9.87920  102.71106    24.0918 1.5505e+00     49.246     0.4408 0.0000e+00
     50.000     8.3724    31.0459    9.87454  102.66057    24.1106 1.5507e+00     50.338     0.4525 0.0000e+00
     51.000     8.3511    31.0723    9.87349  102.64847    24.1352 1.5506e+00     51.365     0.4569 0.0000e+00
     52.000     8.3470    31.0922    9.88040  102.71824    24.1536 1.5505e+00     52.103     0.4445 0.0000e+00
     53.000     8.3272    31.1124    9.87867  102.69524    24.1724 1.5504e+00     53.413     0.4285 0.0000e+00
     54.000     8.3235    31.1241    9.87491  102.64413    24.1834 1.5505e+00     54.233     0.4498 0.0000e+00
     55.000     8.2896    31.1385    9.88532  102.73504    24.1966 1.5502e+00     55.382     0.4535 0.0000e+00
     56.000     8.2736    31.1373    9.87767  102.65341    24.1956 1.5507e+00     56.581     0.5093 0.0000e+00
     57.000     8.2760    31.1760    9.88790  102.73989    24.2315 1.5505e+00     57.491     0.4917 0.0000e+00
     58.000 -9.990e-29 -9.990e-29 -9.990e-29 -9.990e-29 -9.990e-29 -9.990e-29 -9.990e-29 -9.990e-29 -9.990e-29
     59.000     8.2684    31.1854    9.88358  102.64820    24.2404 1.5500e+00     59.613     0.4587 0.0000e+00
     60.000     8.2664    31.1897    9.87953  102.60185    24.2444 1.5504e+00     60.614     0.4542 0.0000e+00
     61.000     8.2641    31.1939    9.87670  102.56451    24.2483 1.5503e+00     61.732     0.4538 0.0000e+00
     62.000     8.2621    31.1925    9.87913  102.59068    24.2471 1.5502e+00     62.734     0.4211 0.0000e+00
     63.000     8.2597    31.1955    9.88294  102.62945    24.2498 1.5499e+00     63.648     0.4534 0.0000e+00
     64.000     8.2515    31.1967    9.88873  102.68823    24.2509 1.5499e+00     64.482     0.4754 0.0000e+00
     65.000     8.2396    31.2026    9.88908  102.69007    24.2564 1.5499e+00     65.808     0.4222 0.0000e+00
     66.000     8.2406    31.2116    9.88799  102.67719    24.2647 1.5501e+00     66.434     0.4512 0.0000e+00
     67.000     8.2331    31.2167    9.89037  102.70118    24.2695 1.5499e+00     67.657     0.5083 0.0000e+00
     68.000     8.2137    31.2203    9.88510  102.64628    24.2729 1.5502e+00     68.409     0.4664 0.0000e+00
     69.000     8.1995    31.2399    9.89082  102.70594    24.2906 1.5499e+00     69.619     0.4715 0.0000e+00
     70.000     8.1961    31.2589    9.89168  102.71464    24.3082 1.5500e+00     70.606     0.5235 0.0000e+00
     71.000     8.1947    31.2649    9.88909  102.68901    24.3137 1.5498e+00     71.553     0.5615 0.0000e+00
     72.000     8.1937    31.2676    9.88345  102.63088    24.3161 1.5497e+00     72.712     0.5774 0.0000e+00
     73.000     8.1929    31.2679    9.88138  102.61063    24.3165 1.5499e+00     73.734     0.5871 0.0000e+00
     74.000     8.1920    31.2696    9.88470  102.64554    24.3180 1.5494e+00     74.454     0.5842 0.0000e+00
     75.000     8.1906    31.2707    9.88229  102.62190    24.3190 1.5498e+00     75.461     0.5835 0.0000e+00
     76.000     8.1897    31.2724    9.89218  102.72124    24.3205 1.5494e+00     76.702     0.6253 0.0000e+00
     77.000     8.1896    31.2740    9.88499  102.65025    24.3219 1.5494e+00     77.221     0.6324 0.0000e+00
     78.000     8.1897    31.2738    9.88197  102.61694    24.3218 1.5491e+00     78.067     0.6255 0.0000e+00
     79.000     8.1898    31.2738    9.87860  102.58204    24.3217 1.5495e+00     78.830     0.6527 0.0000e+00
     80.000     8.1898    31.2738    9.87932  102.59022    24.3217 1.5494e+00     79.380     0.6806 0.0000e+00
     81.000     8.1909    31.2738    9.86987  102.50529    24.3217 1.5494e+00     80.076     0.6382 0.0000e+00
     80.000     8.1921    31.2737    9.87037  102.51034    24.3214 1.5493e+00     79.572     0.8048 0.0000e+00
     79.000     8.1915    31.2730    9.86879  102.50226    24.3208 1.5492e+00     79.056     0.7260 0.0000e+00
     78.000     8.1931    31.2726    9.86984  102.53929    24.3208 1.5493e+00     77.593     0.6512 0.0000e+00
     77.000     8.1913    31.2724    9.87513  102.59229    24.3204 1.5493e+00     77.367     0.6685 0.0000e+00
     76.000     8.1932    31.2729    9.87182  102.57330    24.3208 1.5492e+00     76.272     0.6703 0.0000e+00
     75.000     8.1971    31.2727    9.87102  102.57289    24.3206 1.5491e+00     75.738     0.6901 0.0000e+00
     74.000     8.2020    31.2580    9.89266  102.81433    24.3079 1.5495e+00     74.013     0.6231 0.0000e+00
     73.000     8.1995    31.2596    9.88120  102.69280    24.3090 1.5491e+00     73.655     0.5777 0.0000e+00
     72.000     8.1999    31.2600    9.87769  102.66561    24.3094 1.5490e+00     72.747     0.6271 0.0000e+00
     71.000     8.2050    31.2593    9.87286  102.63562    24.3090 1.5492e+00     71.716     0.6228 0.0000e+00
     70.000     8.2137    31.2524    9.87214  102.63818    24.3030 1.5491e+00     70.589     0.6338 0.0000e+00
     69.000     8.2197    31.2441    9.88468  102.77248    24.2955 1.5488e+00     69.776     0.5437 0.0000e+00
     68.000     8.2250    31.2343    9.88203  102.75190    24.2865 1.5490e+00     68.618     0.6065 0.0000e+00
     67.000     8.2328    31.2306    9.88185  102.75263    24.2830 1.5490e+00     67.698     0.5732 0.0000e+00
     66.000     8.2415    31.2210    9.88673  102.82194    24.2740 1.5491e+00     66.434     0.4740 0.0000e+00
     65.000     8.2430    31.2174    9.86736  102.62274    24.2706 1.5489e+00     65.789     0.5133 0.0000e+00
     64.000     8.2487    31.2127    9.86804  102.65715    24.2662 1.5489e+00     64.564     0.4771 0.0000e+00
     63.000     8.2593    31.2075    9.86723  102.66935    24.2615 1.5488e+00     63.601     0.4733 0.0000e+00
     62.000     8.2656    31.1975    9.86581  102.67487    24.2522 1.5488e+00     62.681     0.4765 0.0000e+00
     61.000     8.2699    31.1896    9.86871  102.72296    24.2448 1.5487e+00     61.550     0.4934 0.0000e+00
     60.000     8.2765    31.1863    9.86881  102.74366    24.2416 1.5487e+00     60.459     0.4556 0.0000e+00
     59.000     8.2752    31.1824    9.86779  102.75866    24.2380 1.5487e+00     59.572     0.4748 0.0000e+00
     58.000     8.2838    31.1816    9.86387  102.74514    24.2373 1.5488e+00     58.651     0.4685 0.0000e+00
     57.000     8.2883    31.1740    9.86165  102.74286    24.2303 1.5488e+00     57.710     0.4675 0.0000e+00
     56.000     8.3048    31.1663    9.86753  102.85564    24.2233 1.5488e+00     56.542     0.4712 0.0000e+00
     55.000     8.3170    31.1524    9.87039  102.90761    24.2104 1.5486e+00     55.621     0.4998 0.0000e+00
     54.000     8.3309    31.1375    9.86562  102.88265    24.1967 1.5488e+00     54.562     0.4971 0.0000e+00
     53.000     8.3407    31.1231    9.85566  102.80793    24.1833 1.5484e+00     53.550     0.4842 0.0000e+00
     52.000     8.3556    31.1126    9.85012  102.76685    24.1734 1.5486e+00     52.483     0.4882 0.0000e+00
     51.000     8.3718    31.1014    9.83791  102.65826    24.1631 1.5484e+00     51.644     0.4888 0.0000e+00
     50.000     8.3875    31.0810    9.85934  102.92149    24.1442 1.5486e+00     50.496     0.4995 0.0000e+00
     49.000     8.4160    31.0668    9.84706  102.81994    24.1311 1.5483e+00     49.499     0.4597 0.0000e+00
     48.000     8.4358    31.0346    9.86043  103.02735    24.1012 1.5486e+00     48.367     0.4918 0.0000e+00
     47.000     8.4493    31.0202    9.85203  102.96006    24.0877 1.5486e+00     47.456     0.4904 0.0000e+00
     46.000     8.4663    31.0050    9.86336  103.11037    24.0735 1.5484e+00     46.406     0.4901 0.0000e+00
     45.000     8.4782    30.9875    9.82209  102.68706    24.0575 1.5479e+00     45.327     0.5533 0.0000e+00
     44.000     8.4891    30.9769    9.82512  102.71964    24.0473 1.5482e+00     44.413     0.4640 0.0000e+00
     43.000     8.5097    30.9688    9.82868  102.75764    24.0398 1.5485e+00     43.455     0.4651 0.0000e+00
     42.000     8.5266    30.9468    9.83463  102.82188    24.0193 1.5481e+00     42.359     0.4798 0.0000e+00
     41.000     8.5576    30.9344    9.85138  103.00424    24.0078 1.5481e+00     41.449     0.4790 0.0000e+00
     40.000     8.5781    30.9007    9.83671  102.88929    23.9764 1.5481e+00     40.333     0.4642 0.0000e+00
     39.000     8.5946    30.8849    9.84272  103.04853    23.9616 1.5480e+00     39.427     0.4737 0.0000e+00
     38.000     8.6030    30.8669    9.83640  103.08510    23.9446 1.5481e+00     38.537     0.4629 0.0000e+00
     37.000     8.6055    30.8555    9.84708  103.44840    23.9337 1.5478e+00     37.289     0.4409 0.0000e+00
     36.000     8.6059    30.8550    9.82286  103.22550    23.9332 1.5480e+00     36.420     0.4489 0.0000e+00
     35.000     8.6064    30.8546    9.81834  103.21428    23.9328 1.5480e+00     35.550     0.4601 0.0000e+00
     34.000     8.6090    30.8546    9.78406  102.89695    23.9326 1.5483e+00     34.322     0.4433 0.0000e+00
     33.000     8.6137    30.8543    9.78997  102.98105    23.9324 1.5481e+00     33.712     0.4449 0.0000e+00
     32.000     8.6874    30.8440    9.78480  102.96391    23.9224 1.5487e+00     32.209     0.4105 0.0000e+00
     31.000     8.7899    30.7682    9.77617  102.88045    23.8514 1.5493e+00     31.353     0.4213 0.0000e+00
     30.000     8.8889    30.6523    9.77090  102.83798    23.7426 1.5495e+00     30.280     0.4370 0.0000e+00
     29.000     8.9289    30.5840    9.76099  102.75488    23.6780 1.5498e+00     29.376     0.4480 0.0000e+00
     28.000     8.9554    30.5522    9.75133  102.68823    23.6475 1.5513e+00     28.193     0.4510 0.0000e+00
     27.000     8.9762    30.5317    9.75542  102.74519    23.6277 1.5526e+00     27.285     0.4538 0.0000e+00
     26.000     8.9869    30.5114    9.75357  102.75124    23.6083 1.5547e+00     26.132     0.4436 0.0000e+00
     25.000     8.9955    30.5089    9.74863  102.72518    23.6057 1.5577e+00     25.125     0.4584 0.0000e+00
     24.000     9.0066    30.4977    9.75792  102.85202    23.5949 1.5616e+00     23.966     0.4902 0.0000e+00
     23.000     9.0090    30.4955    9.75893  102.91146    23.5927 1.5684e+00     23.185     0.4669 0.0000e+00
     22.000     9.0314    30.4913    9.75857  102.93117    23.5887 1.5771e+00     22.330     0.4654 0.0000e+00
     21.000     9.0353    30.4739    9.75667  102.91358    23.5719 1.5904e+00     21.227     0.4914 0.0000e+00
     20.000     9.0454    30.4684    9.74435  102.79278    23.5665 1.6086e+00     20.289     0.4890 0.0000e+00
     19.000     9.0649    30.4585    9.77307  103.10742    23.5570 1.6340e+00     19.132     0.4818 0.0000e+00
     18.000     9.0735    30.4400    9.73293  102.69285    23.5396 1.6685e+00     18.081     0.4499 0.0000e+00
     17.000     9.1009    30.4316    9.75792  102.99675    23.5317 1.7198e+00     17.110     0.4621 0.0000e+00
     16.000     9.1272    30.4017    9.79407  103.42792    23.5040 1.7907e+00     16.059     0.4660 0.0000e+00
     15.000     9.1338    30.3791    9.75087  103.01054    23.4827 1.9055e+00     14.976     0.4608 0.0000e+00
     14.000     9.1335    30.3739    9.79766  103.55783    23.4777 2.0576e+00     13.988     0.4685 0.0000e+00
     13.000     9.1422    30.3736    9.77716  103.36525    23.4773 2.3124e+00     12.873     0.4734 0.0000e+00
     12.000     9.1444    30.3694    9.81723  103.80742    23.4735 2.6773e+00     12.172     0.4672 0.0000e+00
     11.000     9.1526    30.3635    9.77505  103.40774    23.4678 3.2341e+00     10.743     0.4769 0.0000e+00
     10.000     9.1730    30.3615    9.90765  104.83266    23.4662 3.9655e+00     10.103     0.4781 0.0000e+00
      9.000     9.1834    30.3382    9.81001  103.78341    23.4449 5.1461e+00      9.107     0.4782 0.0000e+00
      8.000     9.2274    30.3133    9.48852  100.31412    23.4220 6.9305e+00      7.627     0.4661 0.0000e+00
      7.000     9.2289    30.2978   11.05341  101.34188    23.4076 9.4802e+00      7.137     0.4941 0.0000e+00
      6.000     9.2581    30.2760   11.19256   99.48657    23.3873 1.3480e+01      6.008     0.5231 0.0000e+00
      5.000     9.2723    30.2621   11.17950   99.34888    23.3743 1.8028e+01      5.379     0.5310 0.0000e+00
      4.000     9.2747    30.2330   10.48226  101.43292    23.3461 2.5829e+01      4.178     0.5194 0.0000e+00
      3.000     9.2926    30.2315 -9.990e-29 -9.990e-29    23.3449 3.7522e+01      3.407     0.5768 0.0000e+00
      2.000     9.3090    30.2298 -9.990e-29 -9.990e-29    23.3423 5.1486e+01      2.704     0.5170 0.0000e+00
      1.000     9.3264    30.2114 -9.990e-29 -9.990e-29    23.3244 1.0076e+02      1.905     0.5418 0.0000e+00
