* Sea-Bird SBE19plus Data File:
* FileName = C:\data\otf\2007\ctd-07029.hex
* Software Version 1.55
* Temperature SN =  5061
* Conductivity SN =  5061
* System UpLoad Time = Aug 15 2007 16:01:10
* ds
* SeacatPlus V 1.6a  SERIAL NO. 5061    15 Aug 2007  15:31:53
* vbatt = 10.9, vlith =  8.7, ioper =  61.6 ma, ipump =  57.5 ma, 
* iext01 =  95.2 ma
* iext23 =  58.1 ma
* 
* status = not logging
* number of scans to average = 1
* samples = 153039, free = 288466, casts = 154
* mode = profile, minimum cond freq = 3000, pump delay = 60 sec
* autorun = no, ignore magnetic switch = no
* battery type = alkaline, battery cutoff =  7.3 volts
* pressure sensor = strain gauge, range = 870.0
* SBE 38 = no, Gas Tension Device = no
* Ext Volt 0 = yes, Ext Volt 1 = yes, Ext Volt 2 = yes, Ext Volt 3 = yes
* echo commands = yes
* output format = raw HEX
* S>
* 
* SeacatPlus V 1.6a  SERIAL NO. 5061    15 Aug 2007  15:32:18
* temperature:  05-oct-06
*     TA0 = 1.254184e-03
*     TA1 = 2.596730e-04
*     TA2 = 5.165612e-07
*     TA3 = 1.318931e-07
*     TOFFSET = 0.000000e+00
* conductivity:  05-oct-06
*     G = -9.978144e-01
*     H = 1.555200e-01
*     I = -4.839108e-04
*     J = 6.121100e-05
*     CF0 = 2.539936e+03
*     CPCOR = -9.570000e-08
*     CTCOR = 3.250000e-06
*     CSLOPE = 1.000000e+00
* pressure S/N = 2362539, range = 870 psia:  24-aug-06
*     PA0 = 2.171091e-01
*     PA1 = 2.647085e-03
*     PA2 = 1.419397e-11
*     PTCA0 = 5.242437e+05
*     PTCA1 = 7.545345e+00
*     PTCA2 = -1.835354e-01
*     PTCB0 = 2.537125e+01
*     PTCB1 = -1.750000e-03
*     PTCB2 = 0.000000e+00
*     PTEMPA0 = -5.753989e+01
*     PTEMPA1 = 5.235813e+01
*     PTEMPA2 = -4.015521e-02
*     POFFSET = 0.000000e+00
* volt 0: offset = -4.682842e-02, slope = 1.249147e+00
* volt 1: offset = -4.695158e-02, slope = 1.248145e+00
* volt 2: offset = -4.685263e-02, slope = 1.248783e+00
* volt 3: offset = -4.690316e-02, slope = 1.249508e+00
*     EXTFREQSF = 1.000002e+00
* dh
* cast  29 07 Jul 2007 10:20:27 samples 33469 to 33757, avg = 4, stop = mag switch
* S> 
# nquan = 10
# nvalues = 132                         
# units = specified
# name 0 = depSM: Depth [salt water, m]
# name 1 = tv290C: Temperature [ITS-90, deg C]
# name 2 = sal00: Salinity [PSU]
# name 3 = sbeox0Mg/L: Oxygen, SBE 43 [mg/l]
# name 4 = sbeox0PS: Oxygen, SBE 43 [% saturation]
# name 5 = sigma-t00: Density [sigma-t, Kg/m^3 ]
# name 6 = par: PAR/Irradiance, Biospherical/Licor
# name 7 = prdM: Pressure, Strain Gauge [db]
# name 8 = flECO-AFL: Fluorescence, Wetlab ECO-AFL/FL [mg/m^3]
# name 9 = flag: flag
# span 0 =      1.000,     68.000       
# span 1 =     7.8933,     8.1584       
# span 2 =    31.4711,    31.6125       
# span 3 =    9.80597,   11.56489       
# span 4 =  101.38141,  108.98717       
# span 5 =    24.5084,    24.6297       
# span 6 = 1.5636e+00, 1.7015e+03       
# span 7 =      1.978,     67.703       
# span 8 =     0.3230,     1.2656       
# span 9 = 0.0000e+00, 0.0000e+00       
# interval = meters: 1                  
# start_time = Jul 07 2007 10:20:27
# bad_flag = -9.990e-29
# sensor 0 = Frequency 0  temperature, 5061, 05-Oct-06
# sensor 1 = Frequency 1  conductivity, 5061, 05-Oct-06, cpcor = -9.5700e-08
# sensor 2 = Pressure Number
# sensor 3 = Extrnl Volt  0  irradiance (PAR), primary, 4751, 08/10/06
# sensor 4 = Extrnl Volt  1  Oxygen, SBE, primary, 1081, 10/24/06
# sensor 5 = Extrnl Volt  2  WET Labs, ECO_AFL
# sensor 6 = Extrnl Volt  3  userpoly 0, 0627, 10/11/06
# datcnv_date = Oct 15 2007 14:49:44, 5.37e
# datcnv_in = I:\bob d\OTF_GEM\2007\ctd-07029.hex I:\Willette\OTF\CTD\5061.con
# datcnv_skipover = 0
# filter_date = Oct 15 2007 15:02:22, 5.37e
# filter_in = I:\Willette\OTF\CTD\2007\CTD Data\ctd-07029.cnv
# filter_low_pass_tc_A = 1.000
# filter_low_pass_tc_B = 0.150
# filter_low_pass_A_vars = prdM
# filter_low_pass_B_vars =
# loopedit_date = Oct 15 2007 15:06:45, 5.37e
# loopedit_in = I:\Willette\OTF\CTD\2007\CTD Data\ctd-07029.cnv
# loopedit_minVelocity = 0.250                                                                                            
# loopedit_surfaceSoak: minDepth = 5.0, maxDepth = 20, useDeckPress = 1                                                   
# loopedit_excl_bad_scans = yes
# alignctd_date = Oct 15 2007 15:14:14, 5.37e
# alignctd_in = I:\Willette\OTF\CTD\2007\CTD Data\ctd-07029.cnv
# alignctd_adv = tv290C 0.500, sbeox0Mg/L 4.000, sbeox0PS 4.000                                                                                                                                                                      
# binavg_date = Oct 15 2007 15:18:42, 5.37e
# binavg_in = I:\Willette\OTF\CTD\2007\CTD Data\ctd-07029.cnv
# binavg_bintype = meters
# binavg_binsize = 1
# binavg_excl_bad_scans = yes
# binavg_skipover = 0
# binavg_surface_bin = no, min = 0.000, max = 0.000, value = 0.000
# file_type = ascii
*END*
      4.000     7.9968    31.5309    9.80597  101.38141    24.5501 5.7237e+02      4.433     0.4154 0.0000e+00
      5.000     7.9908    31.5459    9.83390  101.66960    24.5628 4.7422e+02      5.346     0.4436 0.0000e+00
      6.000     7.9670    31.5034    9.85994  101.93285    24.5303 3.7905e+02      6.515     0.4821 0.0000e+00
      7.000     7.9598    31.4711    9.89394  102.28060    24.5084 2.9192e+02      7.615     0.5035 0.0000e+00
      8.000     7.9521    31.4762    9.89176  102.25529    24.5130 2.4038e+02      8.526     0.5402 0.0000e+00
      9.000     7.9490    31.4764    9.91025  102.44392    24.5141 2.0467e+02      9.428     0.5796 0.0000e+00
     10.000     7.9464    31.4785    9.90804  102.41992    24.5164 1.7037e+02     10.453     0.6316 0.0000e+00
     11.000     7.9475    31.4790    9.94844  102.83853    24.5172 1.4601e+02     11.287     0.6343 0.0000e+00
     12.000     7.9439    31.4819    9.94160  102.76813    24.5196 1.2394e+02     12.286     0.7529 0.0000e+00
     13.000     7.9414    31.4819    9.95231  102.87933    24.5198 1.0551e+02     13.272     0.8094 0.0000e+00
     14.000     7.9401    31.4824    9.94838  102.84114    24.5205 8.9684e+01     14.186     0.9277 0.0000e+00
     15.000     7.9397    31.4844    9.95717  102.93153    24.5224 7.6121e+01     15.094     0.9739 0.0000e+00
     16.000     7.9386    31.4855    9.95533  102.91628    24.5235 6.3495e+01     16.159     0.9172 0.0000e+00
     17.000     7.9343    31.4876    9.97853  103.15595    24.5251 5.4553e+01     17.068     0.9449 0.0000e+00
     18.000     7.9329    31.4923    9.98052  103.17700    24.5292 4.6289e+01     18.038     0.9332 0.0000e+00
     19.000     7.9314    31.4979    9.98425  103.21620    24.5342 3.8833e+01     19.081     0.9204 0.0000e+00
     20.000     7.9288    31.4967    9.98996  103.27446    24.5331 3.3087e+01     20.038     0.8649 0.0000e+00
     21.000     7.9286    31.5006    9.98974  103.27643    24.5366 2.8277e+01     21.091     0.8413 0.0000e+00
     22.000     7.9275    31.5013    9.99533  103.33425    24.5373 2.4380e+01     22.252     0.8615 0.0000e+00
     23.000     7.9257    31.5032    9.99636  103.34496    24.5390 2.0986e+01     23.323     0.8558 0.0000e+00
     24.000     7.9247    31.5120    9.99800  103.36259    24.5461 1.7972e+01     24.460     0.8500 0.0000e+00
     25.000     7.9239    31.5169    9.99919  103.37576    24.5502 1.5653e+01     25.494     0.8282 0.0000e+00
     26.000     7.9243    31.5206    9.99866  103.37114    24.5532 1.3589e+01     26.425     0.9185 0.0000e+00
     27.000     7.9238    31.5212    9.99696  103.35339    24.5537 1.1773e+01     27.369     0.9214 0.0000e+00
     28.000     7.9236    31.5273   10.00141  103.39513    24.5585 1.0108e+01     28.418     0.7880 0.0000e+00
     29.000     7.9236    31.5290    9.99817  103.35171    24.5599 8.7585e+00     29.410     0.7916 0.0000e+00
     30.000     7.9236    31.5312    9.99231  103.28939    24.5616 7.6238e+00     30.341     0.8793 0.0000e+00
     31.000     7.9235    31.5311    9.99938  103.36292    24.5615 6.7510e+00     31.356     0.9286 0.0000e+00
     32.000     7.9234    31.5311    9.98976  103.26322    24.5615 5.9836e+00     32.329     0.8941 0.0000e+00
     33.000     7.9231    31.5352    9.97985  103.16238    24.5647 5.3081e+00     33.402     0.8346 0.0000e+00
     34.000     7.9228    31.5375    9.99645  103.33186    24.5666 4.7541e+00     34.387     0.8292 0.0000e+00
     35.000     7.9227    31.5386    9.99148  103.28255    24.5675 4.2723e+00     35.445     0.8141 0.0000e+00
     36.000     7.9227    31.5409    9.99435  103.30927    24.5693 3.8814e+00     36.380     0.8349 0.0000e+00
     37.000     7.9225    31.5405    9.99672  103.33343    24.5690 3.5463e+00     37.445     0.8784 0.0000e+00
     38.000     7.9219    31.5420    9.99439  103.31012    24.5702 3.2644e+00     38.413     0.8236 0.0000e+00
     39.000     7.9185    31.5434    9.99947  103.36492    24.5713 3.0050e+00     39.429     0.7949 0.0000e+00
     40.000     7.9122    31.5476   10.00768  103.44928    24.5747 2.7930e+00     40.423     0.8158 0.0000e+00
     41.000     7.9050    31.5620   10.00573  103.42927    24.5866 2.6164e+00     41.424     0.8502 0.0000e+00
     42.000     7.9038    31.5779    9.99637  103.33308    24.5999 2.4707e+00     42.348     0.7734 0.0000e+00
     43.000     7.9034    31.5905    9.99760  103.34482    24.6110 2.3376e+00     43.405     0.8012 0.0000e+00
     44.000     7.9004    31.5883    9.99801  103.34335    24.6091 2.2299e+00     44.568     0.8694 0.0000e+00
     45.000     7.9037    31.5927    9.99332  103.29107    24.6127 2.1349e+00     45.352     0.8366 0.0000e+00
     46.000     7.9035    31.5938    9.99753  103.33595    24.6139 2.0456e+00     46.233     0.8171 0.0000e+00
     47.000     7.9020    31.5889   10.00254  103.38589    24.6097 1.9714e+00     47.020     0.9283 0.0000e+00
     48.000     7.9029    31.5924    9.99279  103.28805    24.6124 1.9036e+00     47.980     0.9188 0.0000e+00
     49.000     7.9008    31.5928    9.99690  103.33311    24.6129 1.8523e+00     49.013     0.8945 0.0000e+00
     50.000     7.9014    31.5955   10.00628  103.42630    24.6152 1.8097e+00     50.332     0.9012 0.0000e+00
     51.000     7.9034    31.5956    9.99865  103.34676    24.6153 1.7745e+00     51.599     0.8437 0.0000e+00
     52.000     7.9023    31.5905   10.00040  103.36470    24.6110 1.7454e+00     52.718     0.9060 0.0000e+00
     53.000     7.9029    31.5919    9.99614  103.32090    24.6121 1.7204e+00     53.606     0.8365 0.0000e+00
     54.000     7.9018    31.5924    9.99623  103.32195    24.6125 1.6969e+00     54.457     0.8402 0.0000e+00
     55.000     7.8984    31.5924    9.99370  103.29560    24.6125 1.6746e+00     55.412     0.8320 0.0000e+00
     56.000     7.8947    31.5972    9.99052  103.26362    24.6165 1.6564e+00     56.427     0.9576 0.0000e+00
     57.000     7.8942    31.6064    9.98282  103.18603    24.6244 1.6407e+00     57.277     0.9306 0.0000e+00
     58.000     7.8950    31.6095   10.00146  103.38194    24.6272 1.6273e+00     58.413     0.8677 0.0000e+00
     59.000     7.8974    31.6082    9.97887  103.14567    24.6262 1.6172e+00     59.389     0.8697 0.0000e+00
     60.000     7.8953    31.6040    9.94828  102.82741    24.6225 1.6084e+00     60.514     0.8710 0.0000e+00
     61.000     7.8934    31.6065    9.96063  102.95648    24.6244 1.6004e+00     61.519     0.8952 0.0000e+00
     62.000     7.8934    31.6118    9.98603  103.22314    24.6290 1.5926e+00     62.407     0.8371 0.0000e+00
     63.000     7.8934    31.6120    9.98575  103.21946    24.6292 1.5855e+00     63.350     0.9002 0.0000e+00
     64.000     7.8933    31.6117    9.98470  103.20609    24.6290 1.5799e+00     64.199     0.8887 0.0000e+00
     65.000     7.8934    31.6120    9.98495  103.20784    24.6292 1.5750e+00     64.947     0.8357 0.0000e+00
     66.000     7.8934    31.6125    9.98191  103.17621    24.6297 1.5703e+00     65.810     0.8850 0.0000e+00
     67.000     7.8940    31.6119    9.98608  103.22144    24.6292 1.5674e+00     66.551     0.8971 0.0000e+00
     68.000     7.8950    31.6119    9.98067  103.16522    24.6289 1.5636e+00     67.703     0.9197 0.0000e+00
     67.000     7.8951    31.6118    9.98519  103.21451    24.6289 1.5679e+00     67.146     0.8709 0.0000e+00
     66.000     7.8952    31.6116    9.99258  103.29311    24.6286 1.5718e+00     66.039     0.9836 0.0000e+00
     65.000     7.8949    31.6118    9.99027  103.27110    24.6288 1.5766e+00     65.186     0.9008 0.0000e+00
     64.000     7.8953    31.6120    9.97908  103.15668    24.6291 1.5820e+00     64.352     0.9356 0.0000e+00
     63.000     7.8956    31.6115    9.98752  103.24557    24.6286 1.5877e+00     63.453     0.8810 0.0000e+00
     62.000     7.8979    31.6099    9.99141  103.28496    24.6273 1.5954e+00     62.590     1.0655 0.0000e+00
     61.000     7.8994    31.6048    9.99360  103.30708    24.6230 1.6043e+00     61.564     0.9858 0.0000e+00
     60.000     7.8994    31.6006    9.99601  103.33460    24.6195 1.6144e+00     60.601     0.9199 0.0000e+00
     59.000     7.9010    31.6018   10.00283  103.40198    24.6206 1.6245e+00     59.495     1.0136 0.0000e+00
     58.000     7.9025    31.5977   10.00233  103.39742    24.6170 1.6382e+00     58.584     1.0011 0.0000e+00
     57.000     7.9042    31.5951    9.99867  103.36055    24.6147 1.6539e+00     57.650     0.9659 0.0000e+00
     56.000     7.9051    31.5899   10.00402  103.41399    24.6103 1.6721e+00     56.422     0.9771 0.0000e+00
     55.000     7.9057    31.5900   10.00664  103.44353    24.6103 1.6922e+00     55.577     0.9144 0.0000e+00
     54.000     7.9040    31.5882   10.00718  103.44901    24.6088 1.7152e+00     54.509     0.9035 0.0000e+00
     53.000     7.9071    31.5917   10.00322  103.40847    24.6118 1.7398e+00     53.506     0.9192 0.0000e+00
     52.000     7.9060    31.5848    9.99818  103.35824    24.6060 1.7682e+00     52.532     0.8741 0.0000e+00
     51.000     7.9050    31.5887   10.00512  103.43084    24.6092 1.8034e+00     51.536     0.7988 0.0000e+00
     50.000     7.9063    31.5888   10.00840  103.46528    24.6094 1.8424e+00     50.524     0.9208 0.0000e+00
     49.000     7.9057    31.5863   10.00823  103.46301    24.6072 1.8895e+00     49.525     0.8932 0.0000e+00
     48.000     7.9072    31.5863   10.01246  103.50528    24.6074 1.9484e+00     48.488     0.8808 0.0000e+00
     47.000     7.9076    31.5838   10.01281  103.50966    24.6052 2.0162e+00     47.448     0.8831 0.0000e+00
     46.000     7.9088    31.5822   10.01164  103.49706    24.6038 2.0867e+00     46.454     0.8041 0.0000e+00
     45.000     7.9119    31.5785   10.02101  103.59727    24.6006 2.1634e+00     45.417     0.9069 0.0000e+00
     44.000     7.9121    31.5721   10.02754  103.66593    24.5954 2.2658e+00     44.468     0.8851 0.0000e+00
     43.000     7.9124    31.5709   10.03417  103.73541    24.5944 2.3835e+00     43.442     0.8677 0.0000e+00
     42.000     7.9112    31.5709   10.03321  103.72488    24.5943 2.5150e+00     42.401     0.8223 0.0000e+00
     41.000     7.9113    31.5735   10.03727  103.76652    24.5965 2.6713e+00     41.389     0.8542 0.0000e+00
     40.000     7.9123    31.5727   10.03971  103.79181    24.5959 2.8649e+00     40.419     0.8227 0.0000e+00
     39.000     7.9162    31.5681   10.04711  103.86784    24.5921 3.0852e+00     39.368     1.0028 0.0000e+00
     38.000     7.9203    31.5543   10.04864  103.88291    24.5807 3.3267e+00     38.279     0.9047 0.0000e+00
     37.000     7.9215    31.5468   10.04979  103.89362    24.5743 3.6099e+00     37.333     0.8427 0.0000e+00
     36.000     7.9223    31.5435   10.04092  103.80025    24.5716 3.9293e+00     36.290     0.8353 0.0000e+00
     35.000     7.9230    31.5412   10.04775  103.86890    24.5696 4.3439e+00     35.298     0.9946 0.0000e+00
     34.000     7.9238    31.5366   10.05725  103.96618    24.5659 4.8077e+00     34.280     0.8504 0.0000e+00
     33.000     7.9240    31.5342   10.05746  103.96850    24.5638 5.3210e+00     33.244     0.8999 0.0000e+00
     32.000     7.9237    31.5339   10.05287  103.92058    24.5636 5.9338e+00     32.259     0.8327 0.0000e+00
     31.000     7.9240    31.5330   10.04550  103.84337    24.5629 6.6622e+00     31.218     0.8619 0.0000e+00
     30.000     7.9240    31.5319   10.05034  103.89189    24.5621 7.5374e+00     30.231     0.9352 0.0000e+00
     29.000     7.9242    31.5298   10.07207  104.11678    24.5604 8.5378e+00     29.207     0.9330 0.0000e+00
     28.000     7.9241    31.5270   10.08522  104.25242    24.5582 9.6598e+00     28.226     1.0619 0.0000e+00
     27.000     7.9243    31.5245   10.09643  104.36955    24.5562 1.1001e+01     27.277     1.0800 0.0000e+00
     26.000     7.9247    31.5219   10.09206  104.32999    24.5541 1.2675e+01     26.236     0.8926 0.0000e+00
     25.000     7.9251    31.5203   10.10354  104.45616    24.5528 1.4647e+01     25.192     0.9227 0.0000e+00
     24.000     7.9256    31.5205   10.11080  104.53141    24.5530 1.7021e+01     24.190     0.8793 0.0000e+00
     23.000     7.9264    31.5160   10.11700  104.59527    24.5493 1.9800e+01     23.215     0.8805 0.0000e+00
     22.000     7.9269    31.5121   10.13000  104.73431    24.5462 2.3257e+01     22.151     1.2656 0.0000e+00
     21.000     7.9280    31.5084   10.14998  104.94594    24.5432 2.7017e+01     21.127     0.8718 0.0000e+00
     20.000     7.9292    31.5060   10.15915  105.04954    24.5412 3.1561e+01     20.167     0.8582 0.0000e+00
     19.000     7.9311    31.5013   10.17724  105.23811    24.5374 3.6945e+01     19.169     0.8409 0.0000e+00
     18.000     7.9361    31.4975   10.19597  105.43852    24.5341 4.3848e+01     18.110     0.7617 0.0000e+00
     17.000     7.9384    31.4922   10.20005  105.49042    24.5293 5.1377e+01     17.064     0.9511 0.0000e+00
     16.000     7.9394    31.4880   10.20636  105.56647    24.5255 6.0569e+01     15.977     0.8756 0.0000e+00
     15.000     7.9398    31.4861   10.23097  105.83157    24.5239 7.0986e+01     15.008     0.9241 0.0000e+00
     14.000     7.9409    31.4841   10.24506  105.98919    24.5223 8.4265e+01     14.091     0.8681 0.0000e+00
     13.000     7.9443    31.4838   10.29395  106.50354    24.5220 9.9226e+01     13.176     0.8875 0.0000e+00
     12.000     7.9471    31.4823   10.36865  107.30321    24.5203 1.1833e+02     12.204     0.9893 0.0000e+00
     11.000     7.9484    31.4824   10.44960  108.22266    24.5201 1.4085e+02     11.210     0.9390 0.0000e+00
     10.000     7.9503    31.4803   10.50192  108.98717    24.5180 1.6749e+02     10.162     0.8048 0.0000e+00
      9.000     7.9544    31.4800   10.43608  108.35558    24.5176 2.0041e+02      9.171     0.7469 0.0000e+00
      8.000     7.9576    31.4808   10.20489  105.84942    24.5177 2.3317e+02      8.118     0.6340 0.0000e+00
      7.000     7.9624    31.4787   11.56489  104.49049    24.5156 2.8009e+02      7.131     0.5950 0.0000e+00
      6.000     7.9683    31.4798 -9.990e-29 -9.990e-29    24.5158 3.4052e+02      6.137     0.4961 0.0000e+00
      5.000     7.9730    31.4789 -9.990e-29 -9.990e-29    24.5143 4.1344e+02      5.155     0.4729 0.0000e+00
      4.000     7.9786    31.4781 -9.990e-29 -9.990e-29    24.5132 5.1534e+02      4.313     0.4316 0.0000e+00
      3.000     8.0074    31.4784 -9.990e-29 -9.990e-29    24.5126 6.5629e+02      3.402     0.4657 0.0000e+00
      2.000     8.0834    31.4872 -9.990e-29 -9.990e-29    24.5161 7.8469e+02      2.675     0.3971 0.0000e+00
      1.000     8.1584    31.4981 -9.990e-29 -9.990e-29    24.5154 1.7015e+03      1.978     0.3230 0.0000e+00
