* Sea-Bird SBE19plus Data File:
* FileName = C:\data\otf\2007\ctd-07133.hex
* Software Version 1.55
* Temperature SN =  5061
* Conductivity SN =  5061
* System UpLoad Time = Aug 15 2007 17:27:42
* ds
* SeacatPlus V 1.6a  SERIAL NO. 5061    15 Aug 2007  15:31:53
* vbatt = 10.9, vlith =  8.7, ioper =  61.6 ma, ipump =  57.5 ma, 
* iext01 =  95.2 ma
* iext23 =  58.1 ma
* 
* status = not logging
* number of scans to average = 1
* samples = 153039, free = 288466, casts = 154
* mode = profile, minimum cond freq = 3000, pump delay = 60 sec
* autorun = no, ignore magnetic switch = no
* battery type = alkaline, battery cutoff =  7.3 volts
* pressure sensor = strain gauge, range = 870.0
* SBE 38 = no, Gas Tension Device = no
* Ext Volt 0 = yes, Ext Volt 1 = yes, Ext Volt 2 = yes, Ext Volt 3 = yes
* echo commands = yes
* output format = raw HEX
* S>
* 
* SeacatPlus V 1.6a  SERIAL NO. 5061    15 Aug 2007  15:32:18
* temperature:  05-oct-06
*     TA0 = 1.254184e-03
*     TA1 = 2.596730e-04
*     TA2 = 5.165612e-07
*     TA3 = 1.318931e-07
*     TOFFSET = 0.000000e+00
* conductivity:  05-oct-06
*     G = -9.978144e-01
*     H = 1.555200e-01
*     I = -4.839108e-04
*     J = 6.121100e-05
*     CF0 = 2.539936e+03
*     CPCOR = -9.570000e-08
*     CTCOR = 3.250000e-06
*     CSLOPE = 1.000000e+00
* pressure S/N = 2362539, range = 870 psia:  24-aug-06
*     PA0 = 2.171091e-01
*     PA1 = 2.647085e-03
*     PA2 = 1.419397e-11
*     PTCA0 = 5.242437e+05
*     PTCA1 = 7.545345e+00
*     PTCA2 = -1.835354e-01
*     PTCB0 = 2.537125e+01
*     PTCB1 = -1.750000e-03
*     PTCB2 = 0.000000e+00
*     PTEMPA0 = -5.753989e+01
*     PTEMPA1 = 5.235813e+01
*     PTEMPA2 = -4.015521e-02
*     POFFSET = 0.000000e+00
* volt 0: offset = -4.682842e-02, slope = 1.249147e+00
* volt 1: offset = -4.695158e-02, slope = 1.248145e+00
* volt 2: offset = -4.685263e-02, slope = 1.248783e+00
* volt 3: offset = -4.690316e-02, slope = 1.249508e+00
*     EXTFREQSF = 1.000002e+00
* dh
* cast 133 26 Jul 2007 10:04:50 samples 130741 to 131890, avg = 1, stop = mag switch
* S> 
# nquan = 10
# nvalues = 139                         
# units = specified
# name 0 = depSM: Depth [salt water, m]
# name 1 = tv290C: Temperature [ITS-90, deg C]
# name 2 = sal00: Salinity [PSU]
# name 3 = sbeox0Mg/L: Oxygen, SBE 43 [mg/l]
# name 4 = sbeox0PS: Oxygen, SBE 43 [% saturation]
# name 5 = sigma-t00: Density [sigma-t, Kg/m^3 ]
# name 6 = par: PAR/Irradiance, Biospherical/Licor
# name 7 = prdM: Pressure, Strain Gauge [db]
# name 8 = flECO-AFL: Fluorescence, Wetlab ECO-AFL/FL [mg/m^3]
# name 9 = flag: flag
# span 0 =      1.000,     72.000       
# span 1 =     8.3060,    11.0011       
# span 2 =    28.7625,    31.7042       
# span 3 =    8.17603,    9.50036       
# span 4 =   88.89143,   99.85049       
# span 5 =    21.9272,    24.6418       
# span 6 = 1.5473e+00, 2.5984e+02       
# span 7 =      1.085,     72.437       
# span 8 =     0.5577,     1.0148       
# span 9 = 0.0000e+00, 0.0000e+00       
# interval = meters: 1                  
# start_time = Jul 26 2007 10:04:50
# bad_flag = -9.990e-29
# sensor 0 = Frequency 0  temperature, 5061, 05-Oct-06
# sensor 1 = Frequency 1  conductivity, 5061, 05-Oct-06, cpcor = -9.5700e-08
# sensor 2 = Pressure Number
# sensor 3 = Extrnl Volt  0  irradiance (PAR), primary, 4751, 08/10/06
# sensor 4 = Extrnl Volt  1  Oxygen, SBE, primary, 1081, 10/24/06
# sensor 5 = Extrnl Volt  2  WET Labs, ECO_AFL
# sensor 6 = Extrnl Volt  3  userpoly 0, 0627, 10/11/06
# datcnv_date = Oct 15 2007 14:49:52, 5.37e
# datcnv_in = I:\bob d\OTF_GEM\2007\ctd-07133.hex I:\Willette\OTF\CTD\5061.con
# datcnv_skipover = 0
# filter_date = Oct 15 2007 15:02:40, 5.37e
# filter_in = I:\Willette\OTF\CTD\2007\CTD Data\ctd-07133.cnv
# filter_low_pass_tc_A = 1.000
# filter_low_pass_tc_B = 0.150
# filter_low_pass_A_vars = prdM
# filter_low_pass_B_vars =
# loopedit_date = Oct 15 2007 15:06:59, 5.37e
# loopedit_in = I:\Willette\OTF\CTD\2007\CTD Data\ctd-07133.cnv
# loopedit_minVelocity = 0.250                                                                                            
# loopedit_surfaceSoak: minDepth = 5.0, maxDepth = 20, useDeckPress = 1                                                   
# loopedit_excl_bad_scans = yes
# alignctd_date = Oct 15 2007 15:14:24, 5.37e
# alignctd_in = I:\Willette\OTF\CTD\2007\CTD Data\ctd-07133.cnv
# alignctd_adv = tv290C 0.500, sbeox0Mg/L 4.000, sbeox0PS 4.000                                                                                                                                                                      
# binavg_date = Oct 15 2007 15:18:52, 5.37e
# binavg_in = I:\Willette\OTF\CTD\2007\CTD Data\ctd-07133.cnv
# binavg_bintype = meters
# binavg_binsize = 1
# binavg_excl_bad_scans = yes
# binavg_skipover = 0
# binavg_surface_bin = no, min = 0.000, max = 0.000, value = 0.000
# file_type = ascii
*END*
      5.000    11.0011    28.7741    8.17603   88.89143    21.9314 7.6167e+01      5.219     0.9580 0.0000e+00
      6.000    10.9916    28.7743    8.28866   89.97604    21.9332 5.9680e+01      6.187     0.7808 0.0000e+00
      7.000    10.9872    28.7768    8.32135   90.16867    21.9363 4.6163e+01      7.096     0.7389 0.0000e+00
      8.000    10.9773    28.7831    8.28714   89.60127    21.9419 3.5242e+01      8.099     0.7237 0.0000e+00
      9.000    10.9189    28.8364    8.24996   89.02940    21.9866 2.7262e+01      9.058     0.7201 0.0000e+00
     10.000    10.8180    28.9928    8.28730   89.36909    22.1224 2.0724e+01      9.968     0.6640 0.0000e+00
     11.000    10.6695    29.1729    8.33705   89.86990    22.2843 1.5472e+01     10.987     0.6580 0.0000e+00
     12.000    10.4630    29.4075    8.39538   90.41754    22.5000 1.1800e+01     12.148     0.6529 0.0000e+00
     13.000    10.3439    29.5822    8.54632   91.78900    22.6629 9.3761e+00     13.137     0.6428 0.0000e+00
     14.000    10.3102    29.6570    8.66061   92.96676    22.7311 7.4401e+00     14.123     0.6169 0.0000e+00
     15.000    10.2667    29.6945    8.74652   93.88335    22.7651 5.9825e+00     15.168     0.6222 0.0000e+00
     16.000    10.1003    29.8835    8.81476   94.61345    22.9273 4.9147e+00     16.139     0.6238 0.0000e+00
     17.000     9.9909    30.1038    8.86371   95.14936    23.1279 4.0837e+00     17.052     0.6095 0.0000e+00
     18.000     9.9729    30.1582    8.91565   95.61713    23.1778 3.3933e+00     18.121     0.5967 0.0000e+00
     19.000     9.9624    30.1904    8.95881   95.85190    23.2047 2.9118e+00     19.332     0.5837 0.0000e+00
     20.000     9.9528    30.2101    8.98812   95.97023    23.2209 2.6004e+00     20.279     0.5815 0.0000e+00
     21.000     9.9010    30.2911    9.01047   95.99042    23.2882 2.3518e+00     21.162     0.5838 0.0000e+00
     22.000     9.8203    30.3660    9.03778   96.16389    23.3573 2.1379e+00     22.174     0.5781 0.0000e+00
     23.000     9.6844    30.4751    9.06860   96.36419    23.4617 1.9773e+00     23.338     0.5577 0.0000e+00
     24.000     9.5405    30.5947    9.09146   96.48167    23.5740 1.8711e+00     24.379     0.5748 0.0000e+00
     25.000     9.4470    30.7098    9.11224   96.56679    23.6835 1.7951e+00     25.290     0.5775 0.0000e+00
     26.000     9.3923    30.7783    9.13155   96.66270    23.7480 1.7375e+00     26.208     0.5858 0.0000e+00
     27.000     9.3315    30.8523    9.15600   96.81145    23.8152 1.6914e+00     27.212     0.5973 0.0000e+00
     28.000     9.2587    30.9324    9.17743   96.96192    23.8882 1.6585e+00     28.236     0.6076 0.0000e+00
     29.000     9.1669    31.0205    9.19659   97.04607    23.9694 1.6336e+00     29.281     0.6571 0.0000e+00
     30.000     9.0769    31.1144    9.21350   97.12795    24.0581 1.6151e+00     30.313     0.6926 0.0000e+00
     31.000     9.0070    31.1839    9.22728   97.20614    24.1232 1.6020e+00     31.233     0.7095 0.0000e+00
     32.000     8.9526    31.2572    9.23731   97.26514    24.1919 1.5906e+00     32.285     0.7396 0.0000e+00
     33.000     8.8800    31.3059    9.25461   97.41563    24.2384 1.5829e+00     33.386     0.7654 0.0000e+00
     34.000     8.8279    31.3634    9.26621   97.52142    24.2934 1.5772e+00     34.304     0.7697 0.0000e+00
     35.000     8.7850    31.4035    9.27678   97.61611    24.3319 1.5725e+00     35.276     0.7946 0.0000e+00
     36.000     8.7582    31.4298    9.28838   97.68128    24.3585 1.5689e+00     36.294     0.7911 0.0000e+00
     37.000     8.7412    31.4400    9.30240   97.76219    24.3694 1.5665e+00     37.302     0.7648 0.0000e+00
     38.000     8.7289    31.4488    9.31597   97.85182    24.3788 1.5637e+00     38.260     0.7561 0.0000e+00
     39.000     8.7115    31.4557    9.33291   97.98974    24.3860 1.5612e+00     39.356     0.7624 0.0000e+00
     40.000     8.6663    31.4760    9.34908   98.14429    24.4071 1.5589e+00     40.407     0.7583 0.0000e+00
     41.000     8.6338    31.5006    9.35241   98.15294    24.4320 1.5578e+00     41.357     0.7646 0.0000e+00
     42.000     8.6050    31.5209    9.35943   98.20353    24.4530 1.5563e+00     42.361     0.7544 0.0000e+00
     43.000     8.5958    31.5336    9.36976   98.29902    24.4652 1.5551e+00     43.311     0.7490 0.0000e+00
     44.000     8.5763    31.5467    9.38228   98.40672    24.4782 1.5542e+00     44.487     0.7480 0.0000e+00
     45.000     8.5650    31.5501    9.39250   98.49589    24.4828 1.5534e+00     45.433     0.7517 0.0000e+00
     46.000     8.5580    31.5529    9.40090   98.55475    24.4861 1.5527e+00     46.423     0.7475 0.0000e+00
     47.000     8.5426    31.5644    9.41175   98.63203    24.4970 1.5521e+00     47.505     0.7513 0.0000e+00
     48.000     8.5334    31.5782    9.41607   98.62683    24.5096 1.5516e+00     48.426     0.7417 0.0000e+00
     49.000     8.5157    31.5879    9.42183   98.62805    24.5191 1.5511e+00     49.405     0.7602 0.0000e+00
     50.000     8.4919    31.6031    9.43049   98.66875    24.5344 1.5502e+00     50.547     0.7503 0.0000e+00
     51.000     8.4607    31.6178    9.43656   98.70275    24.5500 1.5499e+00     51.544     0.7443 0.0000e+00
     52.000     8.4308    31.6348    9.43938   98.70530    24.5676 1.5498e+00     52.532     0.7346 0.0000e+00
     53.000     8.4140    31.6529    9.43994   98.68805    24.5853 1.5498e+00     53.414     0.7512 0.0000e+00
     54.000     8.3988    31.6611    9.44718   98.71737    24.5940 1.5473e+00     54.529     0.7592 0.0000e+00
     55.000     8.3824    31.6691    9.45088   98.71003    24.6028 1.5473e+00     55.615     0.7458 0.0000e+00
     56.000     8.3710    31.6732    9.45493   98.75204    24.6076 1.5493e+00     56.476     0.7347 0.0000e+00
     57.000     8.3497    31.6777    9.46721   98.87547    24.6134 1.5492e+00     57.562     0.7366 0.0000e+00
     58.000     8.3273    31.6920    9.47433   98.94743    24.6288 1.5484e+00     58.506     0.7237 0.0000e+00
     59.000     8.3243    31.6989    9.47868   98.99830    24.6354 1.5481e+00     59.581     0.7204 0.0000e+00
     60.000     8.3218    31.6981    9.47193   98.92461    24.6350 1.5486e+00     60.666     0.7213 0.0000e+00
     61.000     8.3209    31.6995    9.46761   98.87830    24.6365 1.5485e+00     61.561     0.7362 0.0000e+00
     62.000     8.3236    31.6998    9.46321   98.83209    24.6365 1.5482e+00     62.512     0.7303 0.0000e+00
     63.000     8.3226    31.6984    9.46774   98.86914    24.6353 1.5482e+00     63.512     0.7460 0.0000e+00
     64.000     8.3217    31.6993    9.48033   98.99711    24.6362 1.5485e+00     64.717     0.7540 0.0000e+00
     65.000     8.3200    31.6984    9.48221   99.01471    24.6355 1.5482e+00     65.617     0.7600 0.0000e+00
     66.000     8.3148    31.7000    9.48604   99.05272    24.6375 1.5482e+00     66.589     0.7564 0.0000e+00
     67.000     8.3147    31.7014    9.48498   99.04052    24.6388 1.5482e+00     67.604     0.7716 0.0000e+00
     68.000     8.3133    31.7019    9.49073   99.09732    24.6394 1.5482e+00     68.598     0.7555 0.0000e+00
     69.000     8.3122    31.7025    9.49372   99.12302    24.6400 1.5480e+00     69.618     0.7719 0.0000e+00
     70.000     8.3097    31.7023    9.49805   99.16632    24.6401 1.5478e+00     70.637     0.7752 0.0000e+00
     71.000     8.3077    31.7039    9.49561   99.14079    24.6418 1.5478e+00     71.676     0.9307 0.0000e+00
     72.000     8.3060    31.7033    9.49127   99.09881    24.6414 1.5478e+00     72.437     0.9412 0.0000e+00
     71.000     8.3097    31.7042    9.49658   99.16169    24.6418 1.5480e+00     71.603     1.0148 0.0000e+00
     70.000     8.3096    31.7038    9.49215   99.12715    24.6415 1.5475e+00     70.570     0.9767 0.0000e+00
     69.000     8.3110    31.7039    9.48670   99.06610    24.6415 1.5479e+00     69.632     0.9031 0.0000e+00
     68.000     8.3157    31.7028    9.49206   99.12586    24.6400 1.5480e+00     68.653     0.9323 0.0000e+00
     67.000     8.3179    31.7001    9.49526   99.16226    24.6373 1.5481e+00     67.751     0.8808 0.0000e+00
     66.000     8.3167    31.7007    9.49774   99.19483    24.6381 1.5477e+00     66.572     0.8548 0.0000e+00
     65.000     8.3197    31.6993    9.49645   99.17941    24.6365 1.5475e+00     65.654     0.8436 0.0000e+00
     64.000     8.3215    31.6994    9.49400   99.14664    24.6365 1.5474e+00     64.633     0.8629 0.0000e+00
     63.000     8.3228    31.6971    9.49171   99.13387    24.6342 1.5479e+00     63.607     0.8419 0.0000e+00
     62.000     8.3186    31.6988    9.49160   99.13884    24.6362 1.5478e+00     62.608     0.8356 0.0000e+00
     61.000     8.3238    31.6987    9.49612   99.19445    24.6357 1.5479e+00     61.606     0.8018 0.0000e+00
     60.000     8.3270    31.6964    9.50036   99.25099    24.6333 1.5481e+00     60.559     0.8031 0.0000e+00
     59.000     8.3316    31.6945    9.49874   99.25061    24.6311 1.5480e+00     59.570     0.8066 0.0000e+00
     58.000     8.3379    31.6926    9.49325   99.22570    24.6289 1.5478e+00     58.563     0.8014 0.0000e+00
     57.000     8.3461    31.6893    9.48878   99.20699    24.6251 1.5482e+00     57.578     0.8060 0.0000e+00
     56.000     8.3656    31.6829    9.48532   99.20284    24.6177 1.5481e+00     56.525     0.8017 0.0000e+00
     55.000     8.3809    31.6746    9.49382   99.32361    24.6087 1.5483e+00     55.555     0.8218 0.0000e+00
     54.000     8.3978    31.6667    9.49249   99.33117    24.6000 1.5483e+00     54.534     0.8065 0.0000e+00
     53.000     8.4164    31.6551    9.49542   99.40456    24.5880 1.5486e+00     53.496     0.8218 0.0000e+00
     52.000     8.4301    31.6475    9.49471   99.46800    24.5803 1.5486e+00     52.521     0.8178 0.0000e+00
     51.000     8.4694    31.6269    9.48447   99.40210    24.5591 1.5489e+00     51.476     0.8560 0.0000e+00
     50.000     8.4986    31.6043    9.48323   99.40793    24.5362 1.5493e+00     50.487     0.9491 0.0000e+00
     49.000     8.5121    31.5922    9.47980   99.38934    24.5246 1.5496e+00     49.447     0.9664 0.0000e+00
     48.000     8.5243    31.5791    9.47779   99.37118    24.5125 1.5500e+00     48.505     0.9477 0.0000e+00
     47.000     8.5296    31.5683    9.47503   99.34763    24.5030 1.5503e+00     47.394     0.9490 0.0000e+00
     46.000     8.5320    31.5656    9.46814   99.28606    24.5006 1.5510e+00     46.440     0.9431 0.0000e+00
     45.000     8.5365    31.5619    9.46846   99.31314    24.4971 1.5517e+00     45.450     0.9300 0.0000e+00
     44.000     8.5482    31.5544    9.47181   99.39684    24.4896 1.5531e+00     44.401     0.9151 0.0000e+00
     43.000     8.5641    31.5476    9.47217   99.46250    24.4823 1.5541e+00     43.341     0.9279 0.0000e+00
     42.000     8.5841    31.5426    9.47084   99.50374    24.4757 1.5553e+00     42.392     0.8945 0.0000e+00
     41.000     8.6075    31.5285    9.47003   99.53496    24.4614 1.5567e+00     41.415     0.9063 0.0000e+00
     40.000     8.6408    31.5096    9.46015   99.47497    24.4417 1.5580e+00     40.380     0.8563 0.0000e+00
     39.000     8.6633    31.4919    9.45561   99.46967    24.4240 1.5601e+00     39.413     0.8769 0.0000e+00
     38.000     8.6924    31.4738    9.45434   99.49716    24.4057 1.5624e+00     38.344     0.8584 0.0000e+00
     37.000     8.7165    31.4565    9.45380   99.51804    24.3883 1.5654e+00     37.378     0.8673 0.0000e+00
     36.000     8.7383    31.4415    9.44577   99.46300    24.3731 1.5685e+00     36.360     0.8614 0.0000e+00
     35.000     8.7527    31.4337    9.44209   99.44963    24.3647 1.5725e+00     35.290     0.8660 0.0000e+00
     34.000     8.7636    31.4310    9.44097   99.47421    24.3608 1.5785e+00     34.378     0.8543 0.0000e+00
     33.000     8.7876    31.4178    9.43295   99.48022    24.3475 1.5824e+00     33.301     0.8544 0.0000e+00
     32.000     8.8325    31.3785    9.42639   99.54006    24.3104 1.5918e+00     32.317     0.8535 0.0000e+00
     31.000     8.9073    31.3169    9.41834   99.54127    24.2518 1.6002e+00     31.308     0.8153 0.0000e+00
     30.000     8.9785    31.2406    9.40221   99.46636    24.1799 1.6124e+00     30.253     0.8305 0.0000e+00
     29.000     9.0261    31.1944    9.38904   99.46035    24.1373 1.6290e+00     29.267     0.7885 0.0000e+00
     28.000     9.1127    31.1191    9.38910   99.63181    24.0666 1.6487e+00     28.296     0.7639 0.0000e+00
     27.000     9.2327    30.9930    9.38672   99.73578    23.9493 1.6794e+00     27.238     0.7456 0.0000e+00
     26.000     9.2984    30.9121    9.37250   99.67338    23.8748 1.7166e+00     26.254     0.7016 0.0000e+00
     25.000     9.3653    30.8287    9.35094   99.53134    23.7993 1.7718e+00     25.230     0.6474 0.0000e+00
     24.000     9.4124    30.7749    9.34809   99.81496    23.7494 1.8462e+00     24.194     0.5971 0.0000e+00
     23.000     9.5120    30.7111    9.33007   99.84888    23.6900 1.9383e+00     23.183     0.5954 0.0000e+00
     22.000     9.6743    30.5344    9.31518   99.85049    23.5238 2.0678e+00     22.185     0.5743 0.0000e+00
     21.000     9.7838    30.4424    9.29302   99.70234    23.4355 2.2624e+00     21.154     0.5642 0.0000e+00
     20.000     9.8753    30.3289    9.27744   99.53923    23.3321 2.5066e+00     20.173     0.5727 0.0000e+00
     19.000     9.9385    30.2181    9.27239   99.49610    23.2327 2.8153e+00     19.210     0.5906 0.0000e+00
     18.000     9.9562    30.1670    9.27561   99.74221    23.1885 3.2392e+00     18.202     0.5866 0.0000e+00
     17.000     9.9851    30.1217    9.25606   99.65440    23.1512 3.8550e+00     17.165     0.5808 0.0000e+00
     16.000    10.1652    29.8612    9.23468   99.46777    22.9233 4.6784e+00     16.186     0.5800 0.0000e+00
     15.000    10.2548    29.7005    9.21606   99.31422    22.7778 5.6773e+00     15.087     0.5922 0.0000e+00
     14.000    10.2775    29.6695    9.21128   99.42376    22.7494 6.9851e+00     14.151     0.5720 0.0000e+00
     13.000    10.3236    29.6276    9.20001   99.56653    22.7115 8.7980e+00     13.148     0.6115 0.0000e+00
     12.000    10.4795    29.4611    9.17504   99.54722    22.5604 1.1096e+01     12.048     0.6332 0.0000e+00
     11.000    10.6422    29.2755    9.15414   99.39344    22.3902 1.4099e+01     11.143     0.6301 0.0000e+00
     10.000    10.7827    29.0822    9.13460   99.28644    22.2122 1.8187e+01     10.089     0.6677 0.0000e+00
      9.000    10.8692    28.9435    9.11863   99.15148    22.0899 2.3200e+01      9.074     0.6614 0.0000e+00
      8.000    10.9383    28.8210    9.10273   98.99121    21.9811 2.9296e+01      8.068     0.7027 0.0000e+00
      7.000    10.9588    28.7877    9.08746   98.83065    21.9506 3.8190e+01      7.056     0.7633 0.0000e+00
      6.000    10.9647    28.7773    9.09001   98.86269    21.9409 4.9449e+01      6.029     0.8104 0.0000e+00
      5.000    10.9678    28.7752    9.09007   98.86434    21.9390 6.4039e+01      5.073     0.7974 0.0000e+00
      4.000    10.9716    28.7681    9.08206   98.78086    21.9326 8.2882e+01      4.026     0.8178 0.0000e+00
      3.000    10.9723    28.7669    9.07625   98.72650    21.9316 1.0656e+02      3.028     0.8516 0.0000e+00
      2.000    10.9745    28.7650    9.05418   98.48743    21.9297 1.3226e+02      2.040     0.8592 0.0000e+00
      1.000    10.9801    28.7625    8.95125   97.31664    21.9272 2.5984e+02      1.085     0.8103 0.0000e+00
