* Sea-Bird SBE19plus Data File:
* FileName = C:\data\otf\2007\ctd-07115.hex
* Software Version 1.55
* Temperature SN =  5061
* Conductivity SN =  5061
* System UpLoad Time = Aug 15 2007 16:43:32
* ds
* SeacatPlus V 1.6a  SERIAL NO. 5061    15 Aug 2007  15:31:53
* vbatt = 10.9, vlith =  8.7, ioper =  61.6 ma, ipump =  57.5 ma, 
* iext01 =  95.2 ma
* iext23 =  58.1 ma
* 
* status = not logging
* number of scans to average = 1
* samples = 153039, free = 288466, casts = 154
* mode = profile, minimum cond freq = 3000, pump delay = 60 sec
* autorun = no, ignore magnetic switch = no
* battery type = alkaline, battery cutoff =  7.3 volts
* pressure sensor = strain gauge, range = 870.0
* SBE 38 = no, Gas Tension Device = no
* Ext Volt 0 = yes, Ext Volt 1 = yes, Ext Volt 2 = yes, Ext Volt 3 = yes
* echo commands = yes
* output format = raw HEX
* S>
* 
* SeacatPlus V 1.6a  SERIAL NO. 5061    15 Aug 2007  15:32:18
* temperature:  05-oct-06
*     TA0 = 1.254184e-03
*     TA1 = 2.596730e-04
*     TA2 = 5.165612e-07
*     TA3 = 1.318931e-07
*     TOFFSET = 0.000000e+00
* conductivity:  05-oct-06
*     G = -9.978144e-01
*     H = 1.555200e-01
*     I = -4.839108e-04
*     J = 6.121100e-05
*     CF0 = 2.539936e+03
*     CPCOR = -9.570000e-08
*     CTCOR = 3.250000e-06
*     CSLOPE = 1.000000e+00
* pressure S/N = 2362539, range = 870 psia:  24-aug-06
*     PA0 = 2.171091e-01
*     PA1 = 2.647085e-03
*     PA2 = 1.419397e-11
*     PTCA0 = 5.242437e+05
*     PTCA1 = 7.545345e+00
*     PTCA2 = -1.835354e-01
*     PTCB0 = 2.537125e+01
*     PTCB1 = -1.750000e-03
*     PTCB2 = 0.000000e+00
*     PTEMPA0 = -5.753989e+01
*     PTEMPA1 = 5.235813e+01
*     PTEMPA2 = -4.015521e-02
*     POFFSET = 0.000000e+00
* volt 0: offset = -4.682842e-02, slope = 1.249147e+00
* volt 1: offset = -4.695158e-02, slope = 1.248145e+00
* volt 2: offset = -4.685263e-02, slope = 1.248783e+00
* volt 3: offset = -4.690316e-02, slope = 1.249508e+00
*     EXTFREQSF = 1.000002e+00
* dh
* cast 115 22 Jul 2007 13:41:59 samples 76937 to 77781, avg = 1, stop = mag switch
* S> 
# nquan = 10
# nvalues = 117                         
# units = specified
# name 0 = depSM: Depth [salt water, m]
# name 1 = tv290C: Temperature [ITS-90, deg C]
# name 2 = sal00: Salinity [PSU]
# name 3 = sbeox0Mg/L: Oxygen, SBE 43 [mg/l]
# name 4 = sbeox0PS: Oxygen, SBE 43 [% saturation]
# name 5 = sigma-t00: Density [sigma-t, Kg/m^3 ]
# name 6 = par: PAR/Irradiance, Biospherical/Licor
# name 7 = prdM: Pressure, Strain Gauge [db]
# name 8 = flECO-AFL: Fluorescence, Wetlab ECO-AFL/FL [mg/m^3]
# name 9 = flag: flag
# span 0 =      1.000,     61.000       
# span 1 =     8.5798,    10.2329       
# span 2 =    30.2126,    31.5145       
# span 3 =    8.75401,    9.57131       
# span 4 =   93.31838,  101.61896       
# span 5 =    23.1832,    24.4535       
# span 6 = 1.5563e+00, 1.4058e+02       
# span 7 =      1.080,     61.220       
# span 8 =     0.9555,     1.9289       
# span 9 = 0.0000e+00, 0.0000e+00       
# interval = meters: 1                  
# start_time = Jul 22 2007 13:41:59
# bad_flag = -9.990e-29
# sensor 0 = Frequency 0  temperature, 5061, 05-Oct-06
# sensor 1 = Frequency 1  conductivity, 5061, 05-Oct-06, cpcor = -9.5700e-08
# sensor 2 = Pressure Number
# sensor 3 = Extrnl Volt  0  irradiance (PAR), primary, 4751, 08/10/06
# sensor 4 = Extrnl Volt  1  Oxygen, SBE, primary, 1081, 10/24/06
# sensor 5 = Extrnl Volt  2  WET Labs, ECO_AFL
# sensor 6 = Extrnl Volt  3  userpoly 0, 0627, 10/11/06
# datcnv_date = Oct 15 2007 14:49:48, 5.37e
# datcnv_in = I:\bob d\OTF_GEM\2007\ctd-07115.hex I:\Willette\OTF\CTD\5061.con
# datcnv_skipover = 0
# filter_date = Oct 15 2007 15:02:31, 5.37e
# filter_in = I:\Willette\OTF\CTD\2007\CTD Data\ctd-07115.cnv
# filter_low_pass_tc_A = 1.000
# filter_low_pass_tc_B = 0.150
# filter_low_pass_A_vars = prdM
# filter_low_pass_B_vars =
# loopedit_date = Oct 15 2007 15:06:52, 5.37e
# loopedit_in = I:\Willette\OTF\CTD\2007\CTD Data\ctd-07115.cnv
# loopedit_minVelocity = 0.250                                                                                            
# loopedit_surfaceSoak: minDepth = 5.0, maxDepth = 20, useDeckPress = 1                                                   
# loopedit_excl_bad_scans = yes
# alignctd_date = Oct 15 2007 15:14:19, 5.37e
# alignctd_in = I:\Willette\OTF\CTD\2007\CTD Data\ctd-07115.cnv
# alignctd_adv = tv290C 0.500, sbeox0Mg/L 4.000, sbeox0PS 4.000                                                                                                                                                                      
# binavg_date = Oct 15 2007 15:18:47, 5.37e
# binavg_in = I:\Willette\OTF\CTD\2007\CTD Data\ctd-07115.cnv
# binavg_bintype = meters
# binavg_binsize = 1
# binavg_excl_bad_scans = yes
# binavg_skipover = 0
# binavg_surface_bin = no, min = 0.000, max = 0.000, value = 0.000
# file_type = ascii
*END*
      5.000     9.9397    30.4812    8.75401   93.48707    23.4313 3.8465e+01      5.185     1.7675 0.0000e+00
      6.000     9.8755    30.5354    8.83020   94.01833    23.4823 3.1285e+01      6.122     1.6867 0.0000e+00
      7.000     9.8150    30.6094    8.89030   94.51791    23.5504 2.4838e+01      7.064     1.5072 0.0000e+00
      8.000     9.7080    30.6799    8.91821   94.69198    23.6164 2.0053e+01      8.125     1.3000 0.0000e+00
      9.000     9.4889    30.8129    8.92418   94.70155    23.7445 1.6507e+01      9.055     1.1902 0.0000e+00
     10.000     9.3543    30.9875    8.87145   94.05588    23.9129 1.4003e+01      9.969     1.1834 0.0000e+00
     11.000     9.2536    31.0908    8.81285   93.31838    24.0124 1.1787e+01     10.963     1.1871 0.0000e+00
     12.000     9.1707    31.1881    8.90467   94.13863    24.1045 9.7413e+00     12.032     1.1874 0.0000e+00
     13.000     9.0705    31.2514    9.01624   95.06789    24.1689 8.2372e+00     13.237     1.1970 0.0000e+00
     14.000     9.0017    31.2744    9.06246   95.48289    24.1973 7.1365e+00     14.241     1.1969 0.0000e+00
     15.000     8.9268    31.3241    8.98312   94.59326    24.2466 6.2619e+00     15.212     1.1904 0.0000e+00
     16.000     8.8377    31.3693    9.03016   95.05394    24.2936 5.5796e+00     16.166     1.1752 0.0000e+00
     17.000     8.7845    31.4378    9.10102   95.78713    24.3593 4.9745e+00     17.092     1.1219 0.0000e+00
     18.000     8.7595    31.4742    9.13061   96.08258    24.3937 4.4338e+00     18.348     1.0871 0.0000e+00
     19.000     8.7360    31.4629    9.15670   96.34075    24.3875 4.0449e+00     19.276     1.0681 0.0000e+00
     20.000     8.7262    31.4766    9.17351   96.51046    24.4009 3.6863e+00     20.159     1.0519 0.0000e+00
     21.000     8.7200    31.4865    9.18933   96.67132    24.4099 3.3729e+00     21.179     1.0069 0.0000e+00
     22.000     8.7158    31.4855    9.18637   96.63563    24.4100 3.1272e+00     22.192     1.0199 0.0000e+00
     23.000     8.7068    31.4875    9.17418   96.49577    24.4125 2.9102e+00     23.202     1.0436 0.0000e+00
     24.000     8.7013    31.4916    9.19291   96.68446    24.4169 2.7226e+00     24.171     1.0696 0.0000e+00
     25.000     8.6974    31.4970    9.20463   96.80541    24.4219 2.5520e+00     25.187     1.0844 0.0000e+00
     26.000     8.6951    31.4974    9.18458   96.58928    24.4226 2.4073e+00     26.279     1.0757 0.0000e+00
     27.000     8.6894    31.4940    9.19581   96.70181    24.4205 2.2898e+00     27.281     1.1008 0.0000e+00
     28.000     8.6862    31.4960    9.18663   96.59810    24.4229 2.1873e+00     28.258     1.1085 0.0000e+00
     29.000     8.6856    31.4969    9.17078   96.41511    24.4238 2.0981e+00     29.292     1.0928 0.0000e+00
     30.000     8.6834    31.4932    9.19161   96.62377    24.4209 2.0257e+00     30.261     1.0871 0.0000e+00
     31.000     8.6807    31.4959    9.21170   96.82588    24.4237 1.9596e+00     31.240     1.0878 0.0000e+00
     32.000     8.6754    31.4944    9.24857   97.20157    24.4229 1.9014e+00     32.336     1.1051 0.0000e+00
     33.000     8.6684    31.4944    9.31082   97.85637    24.4239 1.8541e+00     33.349     1.0910 0.0000e+00
     34.000     8.6635    31.4964    9.36347   98.40886    24.4264 1.8126e+00     34.343     1.0888 0.0000e+00
     35.000     8.6608    31.4966    9.39722   98.76458    24.4270 1.7778e+00     35.265     1.0890 0.0000e+00
     36.000     8.6584    31.4854    9.42627   99.07017    24.4189 1.7456e+00     36.338     1.0626 0.0000e+00
     37.000     8.6589    31.4865    9.44547   99.27179    24.4196 1.7199e+00     37.353     1.0881 0.0000e+00
     38.000     8.6585    31.4876    9.46426   99.46943    24.4206 1.6965e+00     38.328     1.0853 0.0000e+00
     39.000     8.6591    31.4874    9.47793   99.61137    24.4204 1.6763e+00     39.398     1.0718 0.0000e+00
     40.000     8.6591    31.4867    9.48544   99.68443    24.4197 1.6598e+00     40.386     1.0708 0.0000e+00
     41.000     8.6585    31.4877    9.48827   99.70388    24.4206 1.6447e+00     41.390     1.0604 0.0000e+00
     42.000     8.6577    31.4905    9.49462   99.77129    24.4230 1.6325e+00     42.393     1.0703 0.0000e+00
     43.000     8.6559    31.4920    9.49930   99.80731    24.4243 1.6208e+00     43.353     1.0868 0.0000e+00
     44.000     8.6503    31.4924    9.50386   99.83023    24.4251 1.6107e+00     44.444     1.0821 0.0000e+00
     45.000     8.6484    31.4965    9.50853   99.86973    24.4292 1.6030e+00     45.463     1.0878 0.0000e+00
     46.000     8.6463    31.4941    9.51160   99.89127    24.4271 1.5954e+00     46.458     1.0622 0.0000e+00
     47.000     8.6363    31.4942    9.51681   99.93481    24.4283 1.5898e+00     47.452     1.0624 0.0000e+00
     48.000     8.6281    31.4990    9.51793   99.93451    24.4337 1.5845e+00     48.453     1.0373 0.0000e+00
     49.000     8.6246    31.5007    9.52160   99.96562    24.4356 1.5797e+00     49.438     1.0360 0.0000e+00
     50.000     8.6186    31.5010    9.52672  100.00776    24.4366 1.5759e+00     50.523     1.0298 0.0000e+00
     51.000     8.6133    31.5025    9.52343   99.96168    24.4385 1.5724e+00     51.497     1.0474 0.0000e+00
     52.000     8.6084    31.5042    9.52302   99.94110    24.4407 1.5691e+00     52.482     1.0299 0.0000e+00
     53.000     8.6057    31.5052    9.52305   99.93776    24.4420 1.5669e+00     53.435     1.0064 0.0000e+00
     54.000     8.5988    31.5051    9.52882   99.99690    24.4427 1.5645e+00     54.504     0.9890 0.0000e+00
     55.000     8.5919    31.5064    9.52800   99.98532    24.4446 1.5626e+00     55.523     0.9818 0.0000e+00
     56.000     8.5854    31.5109    9.52542   99.95623    24.4495 1.5608e+00     56.534     0.9874 0.0000e+00
     57.000     8.5866    31.5124    9.52062   99.90257    24.4507 1.5595e+00     57.568     0.9796 0.0000e+00
     58.000     8.5843    31.5116    9.52236   99.91958    24.4503 1.5582e+00     58.504     0.9581 0.0000e+00
     59.000     8.5833    31.5123    9.51758   99.87372    24.4510 1.5571e+00     59.407     0.9677 0.0000e+00
     60.000     8.5818    31.5125    9.49184   99.60411    24.4514 1.5563e+00     60.381     0.9983 0.0000e+00
     61.000     8.5798    31.5145    9.50604   99.75043    24.4535 1.5573e+00     61.220     1.0635 0.0000e+00
     60.000     8.5832    31.5145    9.52371   99.93695    24.4530 1.5565e+00     60.476     1.0485 0.0000e+00
     59.000     8.5837    31.5126    9.52535   99.95359    24.4512 1.5564e+00     59.542     0.9555 0.0000e+00
     58.000     8.5824    31.5123    9.52941   99.99764    24.4512 1.5575e+00     58.525     0.9621 0.0000e+00
     57.000     8.5822    31.5134    9.53087  100.02139    24.4521 1.5585e+00     57.576     1.0116 0.0000e+00
     56.000     8.5827    31.5127    9.53440  100.06119    24.4516 1.5599e+00     56.479     0.9969 0.0000e+00
     55.000     8.5868    31.5125    9.53237  100.04251    24.4510 1.5616e+00     55.591     1.0033 0.0000e+00
     54.000     8.5885    31.5102    9.53773  100.10655    24.4488 1.5634e+00     54.500     1.0006 0.0000e+00
     53.000     8.5902    31.5098    9.53599  100.10121    24.4482 1.5661e+00     53.519     1.0142 0.0000e+00
     52.000     8.5936    31.5096    9.52235   99.97523    24.4477 1.5684e+00     52.510     1.0195 0.0000e+00
     51.000     8.6011    31.5085    9.52960  100.05825    24.4459 1.5711e+00     51.493     1.0194 0.0000e+00
     50.000     8.6092    31.5058    9.53758  100.15216    24.4423 1.5744e+00     50.426     0.9930 0.0000e+00
     49.000     8.6114    31.5049    9.53184  100.09631    24.4413 1.5784e+00     49.524     1.0169 0.0000e+00
     48.000     8.6165    31.5037    9.53432  100.13065    24.4396 1.5826e+00     48.390     1.0556 0.0000e+00
     47.000     8.6188    31.5030    9.53214  100.11711    24.4387 1.5881e+00     47.484     1.0428 0.0000e+00
     46.000     8.6225    31.5021    9.53194  100.12402    24.4375 1.5942e+00     46.403     1.0624 0.0000e+00
     45.000     8.6275    31.5014    9.53127  100.13874    24.4362 1.6013e+00     45.471     1.0846 0.0000e+00
     44.000     8.6323    31.5008    9.53846  100.23547    24.4351 1.6095e+00     44.348     1.1694 0.0000e+00
     43.000     8.6443    31.4975    9.53749  100.22550    24.4309 1.6189e+00     43.448     1.0600 0.0000e+00
     42.000     8.6513    31.4917    9.53890  100.24447    24.4250 1.6298e+00     42.407     1.0665 0.0000e+00
     41.000     8.6526    31.4905    9.54594  100.32071    24.4238 1.6426e+00     41.372     1.0771 0.0000e+00
     40.000     8.6560    31.4867    9.54584  100.31805    24.4204 1.6572e+00     40.375     1.0727 0.0000e+00
     39.000     8.6567    31.4833    9.54509  100.30955    24.4175 1.6735e+00     39.374     1.0751 0.0000e+00
     38.000     8.6565    31.4821    9.54629  100.32112    24.4165 1.6925e+00     38.338     1.0598 0.0000e+00
     37.000     8.6564    31.4816    9.54927  100.34939    24.4162 1.7154e+00     37.364     1.0881 0.0000e+00
     36.000     8.6559    31.4812    9.54878  100.34750    24.4159 1.7412e+00     36.333     1.0430 0.0000e+00
     35.000     8.6546    31.4807    9.55131  100.38766    24.4157 1.7710e+00     35.309     1.0502 0.0000e+00
     34.000     8.6566    31.4806    9.55563  100.44683    24.4155 1.8051e+00     34.335     1.0888 0.0000e+00
     33.000     8.6639    31.4787    9.55492  100.45353    24.4131 1.8465e+00     33.225     1.0644 0.0000e+00
     32.000     8.6687    31.4771    9.55559  100.46378    24.4111 1.8941e+00     32.302     1.1066 0.0000e+00
     31.000     8.6747    31.4749    9.55312  100.43969    24.4084 1.9473e+00     31.352     1.0762 0.0000e+00
     30.000     8.6780    31.4732    9.55114  100.42008    24.4065 2.0094e+00     30.266     1.0853 0.0000e+00
     29.000     8.6792    31.4723    9.54399  100.34688    24.4055 2.0880e+00     29.269     1.0956 0.0000e+00
     28.000     8.6798    31.4723    9.54996  100.41793    24.4055 2.1754e+00     28.238     1.0857 0.0000e+00
     27.000     8.6798    31.4727    9.55393  100.46427    24.4057 2.2713e+00     27.304     1.1212 0.0000e+00
     26.000     8.6839    31.4715    9.55206  100.45296    24.4044 2.3881e+00     26.231     1.1032 0.0000e+00
     25.000     8.6869    31.4697    9.54855  100.42221    24.4025 2.5251e+00     25.242     1.0892 0.0000e+00
     24.000     8.6912    31.4670    9.55575  100.50185    24.3997 2.6777e+00     24.238     1.1079 0.0000e+00
     23.000     8.6946    31.4644    9.56087  100.56954    24.3972 2.8555e+00     23.258     1.1043 0.0000e+00
     22.000     8.6979    31.4622    9.56391  100.62663    24.3949 3.0832e+00     22.183     1.1738 0.0000e+00
     21.000     8.7070    31.4586    9.55900  100.60166    24.3912 3.3344e+00     21.217     1.1499 0.0000e+00
     20.000     8.7181    31.4496    9.56207  100.67415    24.3822 3.6151e+00     20.201     1.1655 0.0000e+00
     19.000     8.7345    31.4418    9.56770  100.81236    24.3742 3.9684e+00     19.173     1.1694 0.0000e+00
     18.000     8.7584    31.4282    9.57131  101.02168    24.3603 4.4119e+00     18.168     1.2174 0.0000e+00
     17.000     8.8012    31.4075    9.56711  101.11199    24.3390 4.8946e+00     17.134     1.2775 0.0000e+00
     16.000     8.8882    31.3531    9.55758  101.11082    24.2846 5.5113e+00     16.183     1.3051 0.0000e+00
     15.000     8.9675    31.2919    9.55174  101.12988    24.2237 6.3191e+00     15.107     1.3319 0.0000e+00
     14.000     9.0240    31.2504    9.54754  101.18834    24.1821 7.2347e+00     14.111     1.2997 0.0000e+00
     13.000     9.0551    31.2229    9.53646  101.21510    24.1547 8.2243e+00     13.157     1.3161 0.0000e+00
     12.000     9.1188    31.1933    9.52588  101.32172    24.1239 9.7037e+00     12.110     1.3291 0.0000e+00
     11.000     9.2190    31.1285    9.51478  101.49041    24.0590 1.1445e+01     11.076     1.2976 0.0000e+00
     10.000     9.3191    31.0513    9.49996  101.60283    23.9830 1.3609e+01     10.133     1.3244 0.0000e+00
      9.000     9.4902    30.9334    9.48048  101.61896    23.8688 1.6516e+01      9.068     1.2644 0.0000e+00
      8.000     9.6681    30.7679    9.45655  101.45732    23.7096 2.0434e+01      8.073     1.2440 0.0000e+00
      7.000     9.7802    30.6435    9.43705  101.32876    23.5909 2.5414e+01      7.089     1.3847 0.0000e+00
      6.000     9.8468    30.5756    9.42931  101.34981    23.5270 3.1945e+01      6.027     1.6153 0.0000e+00
      5.000     9.8918    30.5241    9.42282  101.43138    23.4785 4.0776e+01      5.079     1.8023 0.0000e+00
      4.000     9.9579    30.4746    9.40544  101.39317    23.4313 5.1329e+01      4.005     1.9289 0.0000e+00
      3.000    10.0536    30.3855    9.39392  101.42571    23.3468 6.4299e+01      3.036     1.7874 0.0000e+00
      2.000    10.1333    30.3086    9.36082  101.08848    23.2727 7.9451e+01      2.026     1.7377 0.0000e+00
      1.000    10.2329    30.2126    9.22986   99.58363    23.1832 1.4058e+02      1.080     1.5926 0.0000e+00
