* Sea-Bird SBE19plus Data File:
* FileName = C:\data\otf\2007\ctd-07050.hex
* Software Version 1.55
* Temperature SN =  5061
* Conductivity SN =  5061
* System UpLoad Time = Aug 15 2007 16:10:36
* ds
* SeacatPlus V 1.6a  SERIAL NO. 5061    15 Aug 2007  15:31:53
* vbatt = 10.9, vlith =  8.7, ioper =  61.6 ma, ipump =  57.5 ma, 
* iext01 =  95.2 ma
* iext23 =  58.1 ma
* 
* status = not logging
* number of scans to average = 1
* samples = 153039, free = 288466, casts = 154
* mode = profile, minimum cond freq = 3000, pump delay = 60 sec
* autorun = no, ignore magnetic switch = no
* battery type = alkaline, battery cutoff =  7.3 volts
* pressure sensor = strain gauge, range = 870.0
* SBE 38 = no, Gas Tension Device = no
* Ext Volt 0 = yes, Ext Volt 1 = yes, Ext Volt 2 = yes, Ext Volt 3 = yes
* echo commands = yes
* output format = raw HEX
* S>
* 
* SeacatPlus V 1.6a  SERIAL NO. 5061    15 Aug 2007  15:32:18
* temperature:  05-oct-06
*     TA0 = 1.254184e-03
*     TA1 = 2.596730e-04
*     TA2 = 5.165612e-07
*     TA3 = 1.318931e-07
*     TOFFSET = 0.000000e+00
* conductivity:  05-oct-06
*     G = -9.978144e-01
*     H = 1.555200e-01
*     I = -4.839108e-04
*     J = 6.121100e-05
*     CF0 = 2.539936e+03
*     CPCOR = -9.570000e-08
*     CTCOR = 3.250000e-06
*     CSLOPE = 1.000000e+00
* pressure S/N = 2362539, range = 870 psia:  24-aug-06
*     PA0 = 2.171091e-01
*     PA1 = 2.647085e-03
*     PA2 = 1.419397e-11
*     PTCA0 = 5.242437e+05
*     PTCA1 = 7.545345e+00
*     PTCA2 = -1.835354e-01
*     PTCB0 = 2.537125e+01
*     PTCB1 = -1.750000e-03
*     PTCB2 = 0.000000e+00
*     PTEMPA0 = -5.753989e+01
*     PTEMPA1 = 5.235813e+01
*     PTEMPA2 = -4.015521e-02
*     POFFSET = 0.000000e+00
* volt 0: offset = -4.682842e-02, slope = 1.249147e+00
* volt 1: offset = -4.695158e-02, slope = 1.248145e+00
* volt 2: offset = -4.685263e-02, slope = 1.248783e+00
* volt 3: offset = -4.690316e-02, slope = 1.249508e+00
*     EXTFREQSF = 1.000002e+00
* dh
* cast  50 10 Jul 2007 10:52:01 samples 43000 to 43242, avg = 4, stop = mag switch
* S> 
# nquan = 10
# nvalues = 124                         
# units = specified
# name 0 = depSM: Depth [salt water, m]
# name 1 = tv290C: Temperature [ITS-90, deg C]
# name 2 = sal00: Salinity [PSU]
# name 3 = sbeox0Mg/L: Oxygen, SBE 43 [mg/l]
# name 4 = sbeox0PS: Oxygen, SBE 43 [% saturation]
# name 5 = sigma-t00: Density [sigma-t, Kg/m^3 ]
# name 6 = par: PAR/Irradiance, Biospherical/Licor
# name 7 = prdM: Pressure, Strain Gauge [db]
# name 8 = flECO-AFL: Fluorescence, Wetlab ECO-AFL/FL [mg/m^3]
# name 9 = flag: flag
# span 0 =      1.000,     64.000       
# span 1 =     8.1692,     8.4251       
# span 2 =    31.5429,    31.6360       
# span 3 =    8.93209,   11.75790       
# span 4 =   93.29594,  101.97970       
# span 5 =    24.5004,    24.6076       
# span 6 = 1.5573e+00, 2.1363e+02       
# span 7 =      1.936,     63.587       
# span 8 =     0.6982,     1.0310       
# span 9 = 0.0000e+00, 0.0000e+00       
# interval = meters: 1                  
# start_time = Jul 10 2007 10:52:01
# bad_flag = -9.990e-29
# sensor 0 = Frequency 0  temperature, 5061, 05-Oct-06
# sensor 1 = Frequency 1  conductivity, 5061, 05-Oct-06, cpcor = -9.5700e-08
# sensor 2 = Pressure Number
# sensor 3 = Extrnl Volt  0  irradiance (PAR), primary, 4751, 08/10/06
# sensor 4 = Extrnl Volt  1  Oxygen, SBE, primary, 1081, 10/24/06
# sensor 5 = Extrnl Volt  2  WET Labs, ECO_AFL
# sensor 6 = Extrnl Volt  3  userpoly 0, 0627, 10/11/06
# datcnv_date = Oct 15 2007 14:49:45, 5.37e
# datcnv_in = I:\bob d\OTF_GEM\2007\ctd-07050.hex I:\Willette\OTF\CTD\5061.con
# datcnv_skipover = 0
# filter_date = Oct 15 2007 15:02:24, 5.37e
# filter_in = I:\Willette\OTF\CTD\2007\CTD Data\ctd-07050.cnv
# filter_low_pass_tc_A = 1.000
# filter_low_pass_tc_B = 0.150
# filter_low_pass_A_vars = prdM
# filter_low_pass_B_vars =
# loopedit_date = Oct 15 2007 15:06:46, 5.37e
# loopedit_in = I:\Willette\OTF\CTD\2007\CTD Data\ctd-07050.cnv
# loopedit_minVelocity = 0.250                                                                                            
# loopedit_surfaceSoak: minDepth = 5.0, maxDepth = 20, useDeckPress = 1                                                   
# loopedit_excl_bad_scans = yes
# alignctd_date = Oct 15 2007 15:14:15, 5.37e
# alignctd_in = I:\Willette\OTF\CTD\2007\CTD Data\ctd-07050.cnv
# alignctd_adv = tv290C 0.500, sbeox0Mg/L 4.000, sbeox0PS 4.000                                                                                                                                                                      
# binavg_date = Oct 15 2007 15:18:43, 5.37e
# binavg_in = I:\Willette\OTF\CTD\2007\CTD Data\ctd-07050.cnv
# binavg_bintype = meters
# binavg_binsize = 1
# binavg_excl_bad_scans = yes
# binavg_skipover = 0
# binavg_surface_bin = no, min = 0.000, max = 0.000, value = 0.000
# file_type = ascii
*END*
      4.000     8.3814    31.5669    8.93209   93.29594    24.5209 1.3218e+02      4.565     0.9232 0.0000e+00
      5.000     8.3802    31.5852    8.97832   93.76385    24.5376 1.0897e+02      5.254     0.9475 0.0000e+00
      6.000     8.3830    31.5786    9.03433   94.32708    24.5328 9.3109e+01      5.922     0.9218 0.0000e+00
      7.000     8.3845    31.6182    9.04800   94.44048    24.5640 7.9939e+01      6.734     0.9464 0.0000e+00
      8.000     8.4085    31.6077    9.01992   94.13374    24.5537 6.6891e+01      8.082     0.9889 0.0000e+00
      9.000     8.4251    31.5448    8.94431   93.30089    24.5004 5.7243e+01      9.487     0.9427 0.0000e+00
     10.000     8.3789    31.6113    9.24625   96.43845    24.5554 4.8547e+01     10.650     0.8758 0.0000e+00
     11.000     8.3675    31.5429    9.38686   97.88330    24.5022 4.3266e+01     11.718     0.9739 0.0000e+00
     12.000     8.3672    31.5740    9.41311   98.13780    24.5302 3.7354e+01     12.608     0.9606 0.0000e+00
     13.000     8.3652    31.5734    9.45275   98.45605    24.5304 3.2734e+01     13.588     0.8964 0.0000e+00
     14.000     8.3622    31.5734    9.48782   98.81714    24.5309 2.8604e+01     14.513     0.8840 0.0000e+00
     15.000     8.3573    31.5714    9.51308   99.07738    24.5296 2.5047e+01     15.359     0.9171 0.0000e+00
     16.000     8.3455    31.5724    9.54251   99.34043    24.5308 2.1803e+01     16.295     0.8478 0.0000e+00
     17.000     8.3351    31.5694    9.56522   99.54663    24.5291 1.9217e+01     17.116     0.8803 0.0000e+00
     18.000     8.3263    31.5736    9.58255   99.71980    24.5339 1.6868e+01     17.973     0.8507 0.0000e+00
     19.000     8.3238    31.5756    9.59775   99.87391    24.5370 1.4859e+01     18.769     0.8163 0.0000e+00
     20.000     8.3200    31.5892    9.61683  100.06495    24.5492 1.2971e+01     19.686     0.7889 0.0000e+00
     21.000     8.3085    31.5824    9.63685  100.26045    24.5443 1.1394e+01     20.746     0.7872 0.0000e+00
     22.000     8.3001    31.5779    9.64784  100.37505    24.5425 1.0020e+01     22.161     0.8302 0.0000e+00
     23.000     8.2890    31.5736    9.66857  100.58505    24.5408 8.9030e+00     23.614     0.8378 0.0000e+00
     24.000     8.2895    31.5734    9.67059  100.60486    24.5410 8.0081e+00     24.282     0.8094 0.0000e+00
     25.000     8.2413    31.5739    9.66339  100.52862    24.5425 7.0289e+00     25.493     0.8504 0.0000e+00
     26.000     8.2323    31.5561    9.66085  100.50462    24.5309 6.4085e+00     26.596     0.7851 0.0000e+00
     27.000     8.2319    31.5825    9.66471  100.54717    24.5574 5.7663e+00     27.135     0.7617 0.0000e+00
     28.000     8.1969    31.5851    9.66340  100.53316    24.5595 5.1154e+00     28.720     0.7937 0.0000e+00
     29.000 -9.990e-29 -9.990e-29 -9.990e-29 -9.990e-29 -9.990e-29 -9.990e-29 -9.990e-29 -9.990e-29 -9.990e-29
     30.000     8.1925    31.5845    9.67096  100.60968    24.5625 4.4633e+00     29.874     0.7880 0.0000e+00
     31.000     8.1843    31.6037    9.68988  100.80561    24.5807 3.8238e+00     31.529     0.7391 0.0000e+00
     32.000     8.1768    31.6011    9.69544  100.86208    24.5785 3.5707e+00     32.467     0.7312 0.0000e+00
     33.000     8.1763    31.6083    9.70175  100.92777    24.5847 3.2816e+00     33.194     0.7172 0.0000e+00
     34.000     8.1765    31.6177    9.70350  100.94517    24.5933 2.9932e+00     34.349     0.7065 0.0000e+00
     35.000     8.1711    31.6188    9.70857  100.99912    24.5941 2.8060e+00     35.504     0.7441 0.0000e+00
     36.000     8.1707    31.6191    9.71046  101.02010    24.5944 2.6468e+00     36.014     0.7600 0.0000e+00
     37.000     8.1700    31.6256    9.71232  101.04065    24.6000 2.4780e+00     36.838     0.7576 0.0000e+00
     38.000     8.1697    31.6317    9.71350  101.05330    24.6052 2.3385e+00     38.049     0.7141 0.0000e+00
     39.000     8.1698    31.6304    9.71451  101.06521    24.6042 2.2233e+00     38.922     0.7634 0.0000e+00
     40.000     8.1715    31.6320    9.71170  101.03685    24.6054 2.1237e+00     39.915     0.8232 0.0000e+00
     41.000     8.1705    31.6332    9.71549  101.07319    24.6060 2.0246e+00     41.534     1.0084 0.0000e+00
     42.000     8.1704    31.6315    9.71632  101.07932    24.6049 1.9592e+00     42.269     0.8244 0.0000e+00
     43.000     8.1699    31.6312    9.71365  101.05380    24.6047 1.8958e+00     43.619     0.8832 0.0000e+00
     44.000     8.1696    31.6308    9.71801  101.10188    24.6044 1.8460e+00     44.714     0.8824 0.0000e+00
     45.000     8.1692    31.6307    9.72253  101.14978    24.6044 1.8037e+00     45.486     0.8052 0.0000e+00
     46.000     8.1695    31.6309    9.72873  101.21342    24.6046 1.7621e+00     46.731     0.7675 0.0000e+00
     47.000     8.1702    31.6319    9.73055  101.23336    24.6054 1.7314e+00     47.592     0.7670 0.0000e+00
     48.000     8.1706    31.6326    9.73075  101.23840    24.6060 1.7012e+00     48.491     0.8277 0.0000e+00
     49.000     8.1710    31.6319    9.72369  101.16856    24.6052 1.6762e+00     49.717     0.7216 0.0000e+00
     50.000     8.1714    31.6321    9.71194  101.04549    24.6055 1.6587e+00     50.399     0.8343 0.0000e+00
     51.000     8.1715    31.6326    9.70862  101.01387    24.6058 1.6415e+00     51.207     0.8373 0.0000e+00
     52.000     8.1698    31.6327    9.71514  101.08443    24.6058 1.6271e+00     52.410     0.8291 0.0000e+00
     53.000 -9.990e-29 -9.990e-29 -9.990e-29 -9.990e-29 -9.990e-29 -9.990e-29 -9.990e-29 -9.990e-29 -9.990e-29
     54.000     8.1694    31.6328    9.74222  101.36896    24.6062 1.6063e+00     54.121     0.8299 0.0000e+00
     55.000     8.1708    31.6341    9.75262  101.47805    24.6073 1.5949e+00     55.865     0.7527 0.0000e+00
     56.000     8.1713    31.6332    9.75280  101.48026    24.6064 1.5885e+00     56.397     0.8070 0.0000e+00
     57.000     8.1709    31.6337    9.74230  101.36903    24.6067 1.5824e+00     57.553     0.8172 0.0000e+00
     58.000     8.1711    31.6330    9.74216  101.36770    24.6060 1.5778e+00     58.219     0.8024 0.0000e+00
     59.000     8.1722    31.6327    9.74755  101.42168    24.6059 1.5727e+00     59.110     0.7741 0.0000e+00
     60.000     8.1741    31.6349    9.75308  101.47563    24.6076 1.5694e+00     60.429     0.8182 0.0000e+00
     61.000     8.1741    31.6330    9.75772  101.52707    24.6058 1.5661e+00     60.846     0.7801 0.0000e+00
     62.000     8.1752    31.6333    9.75949  101.54471    24.6059 1.5628e+00     61.824     0.7778 0.0000e+00
     63.000     8.1760    31.6344    9.76013  101.55172    24.6067 1.5604e+00     62.509     0.7918 0.0000e+00
     64.000     8.1766    31.6346    9.75655  101.51558    24.6066 1.5573e+00     63.587     0.8234 0.0000e+00
     63.000     8.1759    31.6341    9.75099  101.45383    24.6062 1.5599e+00     63.055     0.8414 0.0000e+00
     62.000     8.1750    31.6338    9.74941  101.43515    24.6061 1.5617e+00     62.130     0.7753 0.0000e+00
     61.000     8.1745    31.6332    9.75647  101.50608    24.6056 1.5655e+00     61.339     0.7820 0.0000e+00
     60.000     8.1767    31.6344    9.75383  101.47658    24.6066 1.5670e+00     60.218     0.8029 0.0000e+00
     59.000     8.1773    31.6346    9.75817  101.52156    24.6065 1.5700e+00     59.292     0.9253 0.0000e+00
     58.000     8.1779    31.6349    9.76391  101.57912    24.6067 1.5735e+00     58.541     1.0310 0.0000e+00
     57.000     8.1781    31.6360    9.77298  101.67491    24.6074 1.5787e+00     57.405     0.8210 0.0000e+00
     56.000     8.1759    31.6347    9.76848  101.62810    24.6064 1.5843e+00     56.550     0.8192 0.0000e+00
     55.000     8.1732    31.6345    9.76976  101.64327    24.6064 1.5905e+00     55.375     0.7979 0.0000e+00
     54.000     8.1735    31.6337    9.76552  101.60035    24.6062 1.5984e+00     54.510     0.7976 0.0000e+00
     53.000     8.1724    31.6342    9.76341  101.57633    24.6066 1.6076e+00     53.653     0.7914 0.0000e+00
     52.000     8.1721    31.6326    9.76055  101.54757    24.6055 1.6182e+00     52.412     0.8188 0.0000e+00
     51.000     8.1720    31.6328    9.76307  101.57288    24.6058 1.6306e+00     51.442     0.8279 0.0000e+00
     50.000     8.1706    31.6338    9.76310  101.57428    24.6066 1.6441e+00     50.347     0.7707 0.0000e+00
     49.000     8.1717    31.6327    9.77394  101.68485    24.6058 1.6616e+00     49.395     0.7954 0.0000e+00
     48.000     8.1713    31.6333    9.77253  101.67153    24.6062 1.6815e+00     48.653     0.8093 0.0000e+00
     47.000     8.1724    31.6323    9.76456  101.59072    24.6055 1.7057e+00     47.410     0.8666 0.0000e+00
     46.000     8.1731    31.6329    9.76117  101.55556    24.6058 1.7338e+00     46.469     0.8220 0.0000e+00
     45.000     8.1722    31.6332    9.76070  101.54916    24.6060 1.7687e+00     45.512     0.7819 0.0000e+00
     44.000     8.1727    31.6323    9.76521  101.59620    24.6052 1.8098e+00     44.406     0.8372 0.0000e+00
     43.000 -9.990e-29 -9.990e-29 -9.990e-29 -9.990e-29 -9.990e-29 -9.990e-29 -9.990e-29 -9.990e-29 -9.990e-29
     42.000     8.1725    31.6304    9.77511  101.70303    24.6038 1.8951e+00     42.584     0.8325 0.0000e+00
     41.000 -9.990e-29 -9.990e-29 -9.990e-29 -9.990e-29 -9.990e-29 -9.990e-29 -9.990e-29 -9.990e-29 -9.990e-29
     40.000     8.1719    31.6323    9.78332  101.80015    24.6054 2.0231e+00     40.804     0.8345 0.0000e+00
     39.000     8.1729    31.6331    9.79504  101.95396    24.6060 2.1443e+00     39.443     0.8254 0.0000e+00
     38.000     8.1732    31.6333    9.79606  101.97970    24.6061 2.2645e+00     38.241     0.8635 0.0000e+00
     37.000     8.1726    31.6334    9.79497  101.96470    24.6061 2.3939e+00     37.336     0.9052 0.0000e+00
     36.000     8.1731    31.6328    9.79061  101.92260    24.6057 2.5559e+00     36.440     0.8727 0.0000e+00
     35.000     8.1773    31.6328    9.78375  101.88277    24.6057 2.7345e+00     35.176     0.8099 0.0000e+00
     34.000     8.1790    31.6231    9.78459  101.92296    24.5977 2.9496e+00     34.389     0.7685 0.0000e+00
     33.000     8.1842    31.6175    9.77898  101.91633    24.5930 3.1782e+00     33.342     0.7312 0.0000e+00
     32.000     8.1881    31.6077    9.76188  101.77877    24.5844 3.4533e+00     32.302     0.8014 0.0000e+00
     31.000     8.1991    31.6048    9.74668  101.63981    24.5818 3.7288e+00     31.413     0.6982 0.0000e+00
     30.000     8.2098    31.5992    9.73942  101.58892    24.5755 4.0951e+00     30.322     0.7850 0.0000e+00
     29.000     8.2089    31.5939    9.72650  101.46601    24.5701 4.5282e+00     29.236     0.7559 0.0000e+00
     28.000     8.2119    31.5933    9.71763  101.38173    24.5695 4.9693e+00     28.081     0.7423 0.0000e+00
     27.000     8.2229    31.5947    9.71433  101.35379    24.5705 5.4879e+00     27.232     0.7792 0.0000e+00
     26.000     8.2374    31.5912    9.71322  101.35228    24.5662 6.0595e+00     26.303     0.7498 0.0000e+00
     25.000     8.2690    31.5897    9.70960  101.33485    24.5626 6.7811e+00     25.061     0.7946 0.0000e+00
     24.000     8.2810    31.5839    9.70682  101.31787    24.5547 7.6401e+00     24.215     0.8185 0.0000e+00
     23.000     8.2930    31.5792    9.70238  101.29238    24.5480 8.5851e+00     23.021     0.8096 0.0000e+00
     22.000     8.3000    31.5793    9.69669  101.24441    24.5471 9.6536e+00     22.246     0.7889 0.0000e+00
     21.000     8.3057    31.5778    9.69176  101.20873    24.5441 1.0839e+01     21.060     0.8010 0.0000e+00
     20.000     8.3081    31.5772    9.68354  101.13522    24.5431 1.2225e+01     20.207     0.9379 0.0000e+00
     19.000     8.3107    31.5767    9.67704  101.07819    24.5422 1.3955e+01     19.199     0.9225 0.0000e+00
     18.000     8.3151    31.5766    9.68086  101.11898    24.5416 1.5857e+01     18.105     0.8435 0.0000e+00
     17.000     8.3202    31.5760    9.68208  101.13578    24.5407 1.8160e+01     17.170     0.8799 0.0000e+00
     16.000     8.3272    31.5753    9.68074  101.12221    24.5394 2.0734e+01     16.176     0.8775 0.0000e+00
     15.000     8.3340    31.5733    9.67896  101.10450    24.5368 2.3486e+01     15.209     0.8434 0.0000e+00
     14.000     8.3418    31.5724    9.67595  101.07426    24.5353 2.7009e+01     14.238     0.8660 0.0000e+00
     13.000     8.3497    31.5693    9.67004  101.01345    24.5316 3.1099e+01     13.125     0.9059 0.0000e+00
     12.000     8.3555    31.5669    9.66237  100.93440    24.5287 3.5693e+01     12.229     0.8628 0.0000e+00
     11.000     8.3633    31.5644    9.66495  100.96397    24.5256 4.0834e+01     11.124     0.8519 0.0000e+00
     10.000     8.3659    31.5625    9.68721  100.95511    24.5232 4.6920e+01     10.155     0.8923 0.0000e+00
      9.000     8.3680    31.5603    9.59264  100.17736    24.5207 5.3822e+01      9.120     0.9072 0.0000e+00
      8.000     8.3685    31.5602    9.98212   99.25132    24.5204 6.2063e+01      8.177     0.9099 0.0000e+00
      7.000     8.3689    31.5595   11.75790   99.35012    24.5197 7.0882e+01      6.990     0.8731 0.0000e+00
      6.000     8.3694    31.5601 -9.990e-29 -9.990e-29    24.5202 8.2067e+01      6.106     0.9558 0.0000e+00
      5.000     8.3695    31.5599 -9.990e-29 -9.990e-29    24.5200 9.4760e+01      5.195     0.9870 0.0000e+00
      4.000     8.3703    31.5604 -9.990e-29 -9.990e-29    24.5203 1.0670e+02      4.281     1.0116 0.0000e+00
      3.000     8.3708    31.5602 -9.990e-29 -9.990e-29    24.5201 1.2256e+02      3.452     0.9469 0.0000e+00
      2.000     8.3731    31.5602 -9.990e-29 -9.990e-29    24.5200 1.4419e+02      2.644     0.9430 0.0000e+00
      1.000     8.3763    31.5599 -9.990e-29 -9.990e-29    24.5195 2.1363e+02      1.936     0.8979 0.0000e+00
