* Sea-Bird SBE19plus Data File:
* FileName = C:\data\otf\2007\ctd-07044.hex
* Software Version 1.55
* Temperature SN =  5061
* Conductivity SN =  5061
* System UpLoad Time = Aug 15 2007 16:08:39
* ds
* SeacatPlus V 1.6a  SERIAL NO. 5061    15 Aug 2007  15:31:53
* vbatt = 10.9, vlith =  8.7, ioper =  61.6 ma, ipump =  57.5 ma, 
* iext01 =  95.2 ma
* iext23 =  58.1 ma
* 
* status = not logging
* number of scans to average = 1
* samples = 153039, free = 288466, casts = 154
* mode = profile, minimum cond freq = 3000, pump delay = 60 sec
* autorun = no, ignore magnetic switch = no
* battery type = alkaline, battery cutoff =  7.3 volts
* pressure sensor = strain gauge, range = 870.0
* SBE 38 = no, Gas Tension Device = no
* Ext Volt 0 = yes, Ext Volt 1 = yes, Ext Volt 2 = yes, Ext Volt 3 = yes
* echo commands = yes
* output format = raw HEX
* S>
* 
* SeacatPlus V 1.6a  SERIAL NO. 5061    15 Aug 2007  15:32:18
* temperature:  05-oct-06
*     TA0 = 1.254184e-03
*     TA1 = 2.596730e-04
*     TA2 = 5.165612e-07
*     TA3 = 1.318931e-07
*     TOFFSET = 0.000000e+00
* conductivity:  05-oct-06
*     G = -9.978144e-01
*     H = 1.555200e-01
*     I = -4.839108e-04
*     J = 6.121100e-05
*     CF0 = 2.539936e+03
*     CPCOR = -9.570000e-08
*     CTCOR = 3.250000e-06
*     CSLOPE = 1.000000e+00
* pressure S/N = 2362539, range = 870 psia:  24-aug-06
*     PA0 = 2.171091e-01
*     PA1 = 2.647085e-03
*     PA2 = 1.419397e-11
*     PTCA0 = 5.242437e+05
*     PTCA1 = 7.545345e+00
*     PTCA2 = -1.835354e-01
*     PTCB0 = 2.537125e+01
*     PTCB1 = -1.750000e-03
*     PTCB2 = 0.000000e+00
*     PTEMPA0 = -5.753989e+01
*     PTEMPA1 = 5.235813e+01
*     PTEMPA2 = -4.015521e-02
*     POFFSET = 0.000000e+00
* volt 0: offset = -4.682842e-02, slope = 1.249147e+00
* volt 1: offset = -4.695158e-02, slope = 1.248145e+00
* volt 2: offset = -4.685263e-02, slope = 1.248783e+00
* volt 3: offset = -4.690316e-02, slope = 1.249508e+00
*     EXTFREQSF = 1.000002e+00
* dh
* cast  44 09 Jul 2007 13:19:23 samples 41220 to 41546, avg = 4, stop = mag switch
* S> 
# nquan = 10
# nvalues = 138                         
# units = specified
# name 0 = depSM: Depth [salt water, m]
# name 1 = tv290C: Temperature [ITS-90, deg C]
# name 2 = sal00: Salinity [PSU]
# name 3 = sbeox0Mg/L: Oxygen, SBE 43 [mg/l]
# name 4 = sbeox0PS: Oxygen, SBE 43 [% saturation]
# name 5 = sigma-t00: Density [sigma-t, Kg/m^3 ]
# name 6 = par: PAR/Irradiance, Biospherical/Licor
# name 7 = prdM: Pressure, Strain Gauge [db]
# name 8 = flECO-AFL: Fluorescence, Wetlab ECO-AFL/FL [mg/m^3]
# name 9 = flag: flag
# span 0 =      1.000,     71.000       
# span 1 =     8.0723,     9.4444       
# span 2 =    30.4260,    31.3839       
# span 3 =    8.13988,   11.53099       
# span 4 =   86.06396,  103.35513       
# span 5 =    23.4806,    24.4248       
# span 6 = 1.5471e+00, 6.3376e+02       
# span 7 =      1.778,     70.540       
# span 8 =     0.2555,     0.6953       
# span 9 = 0.0000e+00, 0.0000e+00       
# interval = meters: 1                  
# start_time = Jul 09 2007 13:19:23
# bad_flag = -9.990e-29
# sensor 0 = Frequency 0  temperature, 5061, 05-Oct-06
# sensor 1 = Frequency 1  conductivity, 5061, 05-Oct-06, cpcor = -9.5700e-08
# sensor 2 = Pressure Number
# sensor 3 = Extrnl Volt  0  irradiance (PAR), primary, 4751, 08/10/06
# sensor 4 = Extrnl Volt  1  Oxygen, SBE, primary, 1081, 10/24/06
# sensor 5 = Extrnl Volt  2  WET Labs, ECO_AFL
# sensor 6 = Extrnl Volt  3  userpoly 0, 0627, 10/11/06
# datcnv_date = Oct 15 2007 14:49:44, 5.37e
# datcnv_in = I:\bob d\OTF_GEM\2007\ctd-07044.hex I:\Willette\OTF\CTD\5061.con
# datcnv_skipover = 0
# filter_date = Oct 15 2007 15:02:24, 5.37e
# filter_in = I:\Willette\OTF\CTD\2007\CTD Data\ctd-07044.cnv
# filter_low_pass_tc_A = 1.000
# filter_low_pass_tc_B = 0.150
# filter_low_pass_A_vars = prdM
# filter_low_pass_B_vars =
# loopedit_date = Oct 15 2007 15:06:46, 5.37e
# loopedit_in = I:\Willette\OTF\CTD\2007\CTD Data\ctd-07044.cnv
# loopedit_minVelocity = 0.250                                                                                            
# loopedit_surfaceSoak: minDepth = 5.0, maxDepth = 20, useDeckPress = 1                                                   
# loopedit_excl_bad_scans = yes
# alignctd_date = Oct 15 2007 15:14:14, 5.37e
# alignctd_in = I:\Willette\OTF\CTD\2007\CTD Data\ctd-07044.cnv
# alignctd_adv = tv290C 0.500, sbeox0Mg/L 4.000, sbeox0PS 4.000                                                                                                                                                                      
# binavg_date = Oct 15 2007 15:18:43, 5.37e
# binavg_in = I:\Willette\OTF\CTD\2007\CTD Data\ctd-07044.cnv
# binavg_bintype = meters
# binavg_binsize = 1
# binavg_excl_bad_scans = yes
# binavg_skipover = 0
# binavg_surface_bin = no, min = 0.000, max = 0.000, value = 0.000
# file_type = ascii
*END*
      4.000     9.0508    30.4260    8.41227   88.77507    23.4806 3.6247e+02      4.574     0.3202 0.0000e+00
      5.000     9.0400    30.5214    8.31179   87.79083    23.5901 2.7884e+02      5.178     0.4101 0.0000e+00
      6.000     9.0133    30.6615    8.21521   86.85638    23.7150 2.1019e+02      6.023     0.4736 0.0000e+00
      7.000     9.0231    30.6306    8.13988   86.06396    23.6942 1.6325e+02      6.905     0.5760 0.0000e+00
      8.000     8.9997    30.6667    8.19080   86.30823    23.7252 1.2490e+02      7.788     0.6506 0.0000e+00
      9.000     8.9928    30.6127    8.41298   88.52827    23.6810 9.9531e+01      8.762     0.6953 0.0000e+00
     10.000     8.9645    30.6747    8.55724   90.00828    23.7361 7.7303e+01      9.554     0.6587 0.0000e+00
     11.000     8.9865    30.6790    8.59012   90.30658    23.7402 6.3003e+01     10.475     0.6305 0.0000e+00
     12.000     9.0960    30.6928    8.86948   93.13542    23.7428 5.2830e+01     12.072     0.5887 0.0000e+00
     13.000     9.0323    30.6243    9.47264   99.44090    23.6656 4.5560e+01     13.807     0.5883 0.0000e+00
     14.000     8.9474    30.6611    9.47882   99.48586    23.7213 3.5660e+01     14.412     0.5739 0.0000e+00
     15.000     8.8981    30.7210    9.53901  100.08965    23.7783 2.7335e+01     15.308     0.5749 0.0000e+00
     16.000     8.8792    30.7449    9.56995  100.37457    23.8019 2.1354e+01     16.100     0.5633 0.0000e+00
     17.000     8.8669    30.7340    9.60153  100.63115    23.7971 1.6863e+01     16.879     0.5648 0.0000e+00
     18.000     8.8298    30.7727    9.62535  100.77629    23.8303 1.3280e+01     17.874     0.5183 0.0000e+00
     19.000     8.8217    30.7470    9.65218  100.99469    23.8149 1.0869e+01     18.817     0.5526 0.0000e+00
     20.000     8.8053    30.7504    9.68490  101.24055    23.8202 9.0224e+00     20.681     0.5204 0.0000e+00
     21.000     8.7740    30.7627    9.70016  101.36822    23.8324 7.5940e+00     21.811     0.5053 0.0000e+00
     22.000     8.7619    30.7693    9.70796  101.44663    23.8391 6.4818e+00     22.389     0.5029 0.0000e+00
     23.000     8.6809    30.7927    9.71764  101.49281    23.8623 5.4280e+00     23.516     0.4696 0.0000e+00
     24.000     8.6642    30.8280    9.72331  101.54238    23.8974 4.7401e+00     24.281     0.4491 0.0000e+00
     25.000     8.6323    30.8529    9.73934  101.69345    23.9223 4.1549e+00     25.464     0.4195 0.0000e+00
     26.000     8.6020    30.8846    9.75348  101.81143    23.9525 3.6037e+00     26.345     0.3989 0.0000e+00
     27.000     8.5954    30.9050    9.75491  101.80618    23.9717 3.2321e+00     27.283     0.3948 0.0000e+00
     28.000     8.5713    30.9203    9.76203  101.83283    23.9856 2.9008e+00     28.385     0.3823 0.0000e+00
     29.000     8.5626    30.9398    9.76715  101.87190    24.0042 2.6382e+00     29.469     0.3918 0.0000e+00
     30.000     8.5578    30.9454    9.77420  101.92688    24.0099 2.4372e+00     30.497     0.4025 0.0000e+00
     31.000     8.5279    30.9519    9.77451  101.90854    24.0163 2.2391e+00     31.769     0.3944 0.0000e+00
     32.000     8.5236    30.9644    9.78046  101.94241    24.0282 2.1127e+00     32.506     0.3936 0.0000e+00
     33.000     8.5128    30.9821    9.78335  101.94759    24.0446 1.9889e+00     33.662     0.3960 0.0000e+00
     34.000     8.5069    30.9899    9.78815  101.98454    24.0517 1.9095e+00     34.442     0.4068 0.0000e+00
     35.000     8.4919    30.9960    9.79245  102.02654    24.0574 1.8316e+00     35.550     0.3841 0.0000e+00
     36.000     8.4849    30.9994    9.78992  101.97774    24.0613 1.7822e+00     36.394     0.4069 0.0000e+00
     37.000     8.4701    31.0126    9.78059  101.83317    24.0735 1.7381e+00     37.350     0.4057 0.0000e+00
     38.000     8.4536    31.0178    9.79323  101.96142    24.0788 1.7103e+00     38.377     0.4248 0.0000e+00
     39.000     8.4509    31.0331    9.79950  102.01691    24.0932 1.6847e+00     39.057     0.3963 0.0000e+00
     40.000     8.4236    31.0611    9.80482  101.94374    24.1189 1.6645e+00     41.235     0.4109 0.0000e+00
     41.000     8.4327    31.0464    9.80560  101.92947    24.1057 1.6507e+00     41.183     0.3963 0.0000e+00
     42.000     8.4246    31.0599    9.80315  101.92069    24.1184 1.6291e+00     42.048     0.3925 0.0000e+00
     43.000     8.3941    31.0648    9.80766  101.92394    24.1230 1.6124e+00     43.670     0.4134 0.0000e+00
     44.000     8.3918    31.0827    9.80859  101.95212    24.1401 1.5989e+00     44.113     0.3938 0.0000e+00
     45.000     8.3785    31.0940    9.81512  101.99060    24.1508 1.5856e+00     45.371     0.3792 0.0000e+00
     46.000     8.3778    31.1081    9.81899  101.97129    24.1640 1.5782e+00     46.060     0.3722 0.0000e+00
     47.000     8.3411    31.1120    9.82324  101.99238    24.1677 1.5712e+00     47.260     0.3894 0.0000e+00
     48.000     8.3374    31.1453    9.82493  101.97683    24.1994 1.5664e+00     48.491     0.3740 0.0000e+00
     49.000     8.2909    31.1465    9.82683  101.97917    24.2006 1.5631e+00     49.509     0.3723 0.0000e+00
     50.000     8.2593    31.1778    9.84203  102.10060    24.2308 1.5606e+00     50.687     0.3664 0.0000e+00
     51.000     8.2518    31.2089    9.84431  102.12006    24.2600 1.5584e+00     51.419     0.3635 0.0000e+00
     52.000     8.2469    31.2176    9.85344  102.19951    24.2686 1.5566e+00     52.527     0.3802 0.0000e+00
     53.000     8.2239    31.2226    9.85907  102.25058    24.2732 1.5550e+00     53.557     0.3635 0.0000e+00
     54.000     8.2015    31.2309    9.86606  102.31203    24.2812 1.5540e+00     54.449     0.3675 0.0000e+00
     55.000     8.1856    31.2608    9.86839  102.33059    24.3093 1.5530e+00     55.433     0.3709 0.0000e+00
     56.000     8.1716    31.2724    9.87317  102.36838    24.3204 1.5519e+00     56.318     0.3752 0.0000e+00
     57.000     8.1576    31.2905    9.86971  102.33465    24.3375 1.5518e+00     57.423     0.3730 0.0000e+00
     58.000     8.1447    31.3017    9.88136  102.44294    24.3479 1.5508e+00     58.375     0.3809 0.0000e+00
     59.000     8.1216    31.3151    9.88506  102.48786    24.3607 1.5500e+00     59.805     0.4006 0.0000e+00
     60.000     8.1240    31.3275    9.88521  102.48449    24.3722 1.5498e+00     60.385     0.3919 0.0000e+00
     61.000     8.1199    31.3331    9.88666  102.49062    24.3775 1.5496e+00     61.153     0.4122 0.0000e+00
     62.000     8.1071    31.3427    9.88889  102.49474    24.3863 1.5489e+00     62.455     0.4563 0.0000e+00
     63.000     8.1052    31.3465    9.88941  102.50296    24.3899 1.5491e+00     63.011     0.4413 0.0000e+00
     64.000     8.1021    31.3517    9.89237  102.53288    24.3949 1.5492e+00     63.680     0.4403 0.0000e+00
     65.000     8.0884    31.3626    9.90062  102.61007    24.4051 1.5480e+00     65.362     0.4085 0.0000e+00
     66.000     8.0803    31.3726    9.91074  102.71083    24.4145 1.5479e+00     66.430     0.4277 0.0000e+00
     67.000     8.0786    31.3769    9.90378  102.63979    24.4184 1.5476e+00     67.737     0.4536 0.0000e+00
     68.000     8.0754    31.3791    9.89586  102.55884    24.4205 1.5476e+00     68.726     0.4415 0.0000e+00
     69.000     8.0736    31.3805    9.89978  102.60158    24.4218 1.5473e+00     69.394     0.4073 0.0000e+00
     70.000     8.0739    31.3825    9.90351  102.63615    24.4235 1.5473e+00     70.245     0.4451 0.0000e+00
     71.000     8.0754    31.3824    9.89454  102.57004    24.4234 1.5474e+00     70.540     0.4761 0.0000e+00
     70.000     8.0735    31.3817    9.89868  102.63185    24.4228 1.5473e+00     69.796     0.4738 0.0000e+00
     69.000     8.0723    31.3839    9.89924  102.65244    24.4248 1.5472e+00     68.970     0.4696 0.0000e+00
     68.000     8.0735    31.3838    9.88887  102.55369    24.4248 1.5471e+00     68.188     0.4600 0.0000e+00
     67.000     8.0745    31.3835    9.89434  102.62179    24.4245 1.5472e+00     67.335     0.4615 0.0000e+00
     66.000     8.0764    31.3821    9.89195  102.60917    24.4232 1.5474e+00     66.469     0.5270 0.0000e+00
     65.000     8.0803    31.3790    9.88560  102.60170    24.4206 1.5472e+00     65.193     0.4486 0.0000e+00
     64.000     8.0847    31.3779    9.88080  102.58906    24.4192 1.5477e+00     64.599     0.4829 0.0000e+00
     63.000     8.0896    31.3720    9.86821  102.49303    24.4139 1.5480e+00     63.547     0.4828 0.0000e+00
     62.000     8.0983    31.3678    9.85835  102.40441    24.4101 1.5484e+00     62.620     0.5615 0.0000e+00
     61.000     8.1054    31.3597    9.85842  102.43745    24.4026 1.5486e+00     61.650     0.4309 0.0000e+00
     60.000     8.1115    31.3504    9.85612  102.47535    24.3940 1.5489e+00     60.531     0.4117 0.0000e+00
     59.000     8.1162    31.3458    9.84585  102.41535    24.3897 1.5495e+00     59.670     0.4481 0.0000e+00
     58.000     8.1239    31.3397    9.83480  102.34289    24.3840 1.5497e+00     58.541     0.4045 0.0000e+00
     57.000     8.1311    31.3343    9.83242  102.30723    24.3790 1.5505e+00     57.746     0.4096 0.0000e+00
     56.000     8.1646    31.3269    9.82283  102.24522    24.3721 1.5514e+00     56.752     0.4121 0.0000e+00
     55.000     8.1991    31.2910    9.81783  102.23816    24.3385 1.5522e+00     55.525     0.4123 0.0000e+00
     54.000     8.2081    31.2674    9.81832  102.27446    24.3163 1.5532e+00     54.634     0.3921 0.0000e+00
     53.000     8.2262    31.2549    9.81273  102.22965    24.3045 1.5545e+00     53.687     0.3854 0.0000e+00
     52.000     8.2527    31.2406    9.81220  102.24844    24.2910 1.5556e+00     52.646     0.4293 0.0000e+00
     51.000     8.2969    31.2103    9.79310  102.07312    24.2622 1.5577e+00     51.613     0.3773 0.0000e+00
     50.000     8.3098    31.1784    9.79579  102.10827    24.2318 1.5604e+00     50.638     0.3716 0.0000e+00
     49.000     8.3285    31.1639    9.79238  102.09723    24.2179 1.5635e+00     49.461     0.3622 0.0000e+00
     48.000     8.3511    31.1514    9.77806  101.95765    24.2059 1.5671e+00     48.579     0.3940 0.0000e+00
     47.000     8.3765    31.1287    9.77541  101.94355    24.1843 1.5721e+00     47.537     0.3733 0.0000e+00
     46.000     8.3880    31.1084    9.77853  101.99399    24.1650 1.5772e+00     46.430     0.3685 0.0000e+00
     45.000     8.4063    31.0961    9.77637  101.98519    24.1534 1.5842e+00     45.386     0.3872 0.0000e+00
     44.000     8.4119    31.0820    9.77133  101.96113    24.1401 1.5929e+00     44.377     0.3779 0.0000e+00
     43.000     8.4242    31.0770    9.76536  101.91399    24.1354 1.6030e+00     43.348     0.3695 0.0000e+00
     42.000     8.4316    31.0663    9.76524  101.93347    24.1253 1.6172e+00     42.345     0.3765 0.0000e+00
     41.000     8.4382    31.0599    9.77668  102.07350    24.1191 1.6344e+00     41.360     0.3814 0.0000e+00
     40.000     8.4463    31.0549    9.77502  102.07257    24.1142 1.6533e+00     40.474     0.3891 0.0000e+00
     39.000     8.4538    31.0456    9.78007  102.13493    24.1056 1.6753e+00     39.387     0.4127 0.0000e+00
     38.000     8.4670    31.0390    9.78076  102.15126    24.0994 1.7006e+00     38.406     0.3870 0.0000e+00
     37.000     8.4815    31.0250    9.78263  102.19632    24.0863 1.7325e+00     37.305     0.3933 0.0000e+00
     36.000     8.4882    31.0169    9.76267  101.99913    24.0783 1.7759e+00     36.380     0.4095 0.0000e+00
     35.000     8.4985    31.0100    9.76323  102.02597    24.0716 1.8293e+00     35.383     0.3957 0.0000e+00
     34.000     8.5137    30.9989    9.76719  102.09829    24.0610 1.9010e+00     34.330     0.3875 0.0000e+00
     33.000     8.5198    30.9882    9.76559  102.09986    24.0510 1.9916e+00     33.399     0.3864 0.0000e+00
     32.000     8.5256    30.9811    9.75822  102.04129    24.0445 2.1015e+00     32.436     0.3914 0.0000e+00
     31.000     8.5403    30.9725    9.76131  102.12269    24.0366 2.2552e+00     31.251     0.3792 0.0000e+00
     30.000     8.5474    30.9613    9.75483  102.13886    24.0258 2.4594e+00     30.234     0.3950 0.0000e+00
     29.000     8.5584    30.9602    9.74795  102.18322    24.0240 2.6856e+00     29.237     0.4126 0.0000e+00
     28.000     8.5756    30.9538    9.74684  102.23482    24.0170 2.9319e+00     28.250     0.3988 0.0000e+00
     27.000     8.5912    30.9381    9.74527  102.26214    24.0021 3.2715e+00     27.155     0.3992 0.0000e+00
     26.000     8.6047    30.9150    9.73681  102.19741    23.9821 3.7551e+00     26.137     0.3795 0.0000e+00
     25.000     8.6299    30.8984    9.74210  102.27557    23.9670 4.4358e+00     25.239     0.3989 0.0000e+00
     24.000     8.6696    30.8773    9.74297  102.30553    23.9466 5.1143e+00     24.223     0.4159 0.0000e+00
     23.000     8.7226    30.8483    9.75199  102.42057    23.9182 5.5451e+00     23.250     0.4281 0.0000e+00
     22.000     8.7655    30.8061    9.75323  102.45759    23.8764 6.0357e+00     22.191     0.4514 0.0000e+00
     21.000     8.7885    30.7796    9.73887  102.32092    23.8501 7.0331e+00     21.205     0.4737 0.0000e+00
     20.000     8.8041    30.7619    9.74000  102.35631    23.8326 8.2587e+00     20.130     0.5236 0.0000e+00
     19.000     8.8173    30.7523    9.74964  102.49308    23.8232 9.7688e+00     19.152     0.4936 0.0000e+00
     18.000     8.8289    30.7422    9.75685  102.60261    23.8133 1.1913e+01     18.167     0.5064 0.0000e+00
     17.000     8.8407    30.7328    9.75983  102.66355    23.8043 1.4537e+01     17.176     0.5019 0.0000e+00
     16.000     8.8551    30.7210    9.75921  102.69157    23.7929 1.7206e+01     15.929     0.5249 0.0000e+00
     15.000     8.8629    30.7130    9.76122  102.73850    23.7851 2.1065e+01     15.033     0.5264 0.0000e+00
     14.000     8.8718    30.7068    9.76791  102.82094    23.7792 2.5731e+01     14.073     0.5264 0.0000e+00
     13.000     8.8851    30.6987    9.77504  102.96846    23.7712 3.1886e+01     12.996     0.5249 0.0000e+00
     12.000     8.9060    30.6893    9.77079  103.11537    23.7622 4.0098e+01     12.071     0.5543 0.0000e+00
     11.000     8.9213    30.6704    9.74869  103.35513    23.7441 5.0803e+01     11.020     0.6309 0.0000e+00
     10.000     8.9355    30.6585    9.72552  103.27353    23.7327 6.4722e+01     10.013     0.6494 0.0000e+00
      9.000     8.9491    30.6470   11.53099  103.15686    23.7214 8.0599e+01      9.019     0.6536 0.0000e+00
      8.000     8.9604    30.6370   10.73880  102.55561    23.7118 1.0507e+02      8.048     0.6874 0.0000e+00
      7.000     8.9760    30.6297   11.27621  102.01938    23.7048 1.3565e+02      7.207     0.6901 0.0000e+00
      6.000     8.9940    30.6131   11.49015  101.69489    23.6884 1.7219e+02      5.991     0.6153 0.0000e+00
      5.000     9.0258    30.5916   11.52360  101.62246    23.6698 2.2191e+02      5.195     0.5716 0.0000e+00
      4.000     9.1516    30.5932 -9.990e-29 -9.990e-29    23.6674 2.7324e+02      4.170     0.5079 0.0000e+00
      3.000     9.3269    30.5680 -9.990e-29 -9.990e-29    23.6347 3.4275e+02      3.451     0.4426 0.0000e+00
      2.000     9.4107    30.4838 -9.990e-29 -9.990e-29    23.5363 4.2179e+02      2.572     0.3207 0.0000e+00
      1.000     9.4444    30.4424 -9.990e-29 -9.990e-29    23.4891 6.3376e+02      1.778     0.2555 0.0000e+00
