* Sea-Bird SBE19plus Data File:
* FileName = C:\data\otf\2007\ctd-07140.hex
* Software Version 1.55
* Temperature SN =  5061
* Conductivity SN =  5061
* System UpLoad Time = Aug 15 2007 17:33:53
* ds
* SeacatPlus V 1.6a  SERIAL NO. 5061    15 Aug 2007  15:31:53
* vbatt = 10.9, vlith =  8.7, ioper =  61.6 ma, ipump =  57.5 ma, 
* iext01 =  95.2 ma
* iext23 =  58.1 ma
* 
* status = not logging
* number of scans to average = 1
* samples = 153039, free = 288466, casts = 154
* mode = profile, minimum cond freq = 3000, pump delay = 60 sec
* autorun = no, ignore magnetic switch = no
* battery type = alkaline, battery cutoff =  7.3 volts
* pressure sensor = strain gauge, range = 870.0
* SBE 38 = no, Gas Tension Device = no
* Ext Volt 0 = yes, Ext Volt 1 = yes, Ext Volt 2 = yes, Ext Volt 3 = yes
* echo commands = yes
* output format = raw HEX
* S>
* 
* SeacatPlus V 1.6a  SERIAL NO. 5061    15 Aug 2007  15:32:18
* temperature:  05-oct-06
*     TA0 = 1.254184e-03
*     TA1 = 2.596730e-04
*     TA2 = 5.165612e-07
*     TA3 = 1.318931e-07
*     TOFFSET = 0.000000e+00
* conductivity:  05-oct-06
*     G = -9.978144e-01
*     H = 1.555200e-01
*     I = -4.839108e-04
*     J = 6.121100e-05
*     CF0 = 2.539936e+03
*     CPCOR = -9.570000e-08
*     CTCOR = 3.250000e-06
*     CSLOPE = 1.000000e+00
* pressure S/N = 2362539, range = 870 psia:  24-aug-06
*     PA0 = 2.171091e-01
*     PA1 = 2.647085e-03
*     PA2 = 1.419397e-11
*     PTCA0 = 5.242437e+05
*     PTCA1 = 7.545345e+00
*     PTCA2 = -1.835354e-01
*     PTCB0 = 2.537125e+01
*     PTCB1 = -1.750000e-03
*     PTCB2 = 0.000000e+00
*     PTEMPA0 = -5.753989e+01
*     PTEMPA1 = 5.235813e+01
*     PTEMPA2 = -4.015521e-02
*     POFFSET = 0.000000e+00
* volt 0: offset = -4.682842e-02, slope = 1.249147e+00
* volt 1: offset = -4.695158e-02, slope = 1.248145e+00
* volt 2: offset = -4.685263e-02, slope = 1.248783e+00
* volt 3: offset = -4.690316e-02, slope = 1.249508e+00
*     EXTFREQSF = 1.000002e+00
* dh
* cast 140 27 Jul 2007 13:10:17 samples 137630 to 138476, avg = 1, stop = mag switch
* S> 
# nquan = 10
# nvalues = 87                          
# units = specified
# name 0 = depSM: Depth [salt water, m]
# name 1 = tv290C: Temperature [ITS-90, deg C]
# name 2 = sal00: Salinity [PSU]
# name 3 = sbeox0Mg/L: Oxygen, SBE 43 [mg/l]
# name 4 = sbeox0PS: Oxygen, SBE 43 [% saturation]
# name 5 = sigma-t00: Density [sigma-t, Kg/m^3 ]
# name 6 = par: PAR/Irradiance, Biospherical/Licor
# name 7 = prdM: Pressure, Strain Gauge [db]
# name 8 = flECO-AFL: Fluorescence, Wetlab ECO-AFL/FL [mg/m^3]
# name 9 = flag: flag
# span 0 =      1.000,     46.000       
# span 1 =     9.0056,     9.0213       
# span 2 =    31.4890,    31.5404       
# span 3 =    8.29046,    9.68855       
# span 4 =   87.85609,   98.45912       
# span 5 =    24.3678,    24.4075       
# span 6 = 1.8025e+00, 6.1122e+02       
# span 7 =      1.062,     46.027       
# span 8 =     0.8736,     1.6163       
# span 9 = 0.0000e+00, 0.0000e+00       
# interval = meters: 1                  
# start_time = Jul 27 2007 13:10:17
# bad_flag = -9.990e-29
# sensor 0 = Frequency 0  temperature, 5061, 05-Oct-06
# sensor 1 = Frequency 1  conductivity, 5061, 05-Oct-06, cpcor = -9.5700e-08
# sensor 2 = Pressure Number
# sensor 3 = Extrnl Volt  0  irradiance (PAR), primary, 4751, 08/10/06
# sensor 4 = Extrnl Volt  1  Oxygen, SBE, primary, 1081, 10/24/06
# sensor 5 = Extrnl Volt  2  WET Labs, ECO_AFL
# sensor 6 = Extrnl Volt  3  userpoly 0, 0627, 10/11/06
# datcnv_date = Oct 15 2007 14:49:53, 5.37e
# datcnv_in = I:\bob d\OTF_GEM\2007\ctd-07140.hex I:\Willette\OTF\CTD\5061.con
# datcnv_skipover = 0
# filter_date = Oct 15 2007 15:02:42, 5.37e
# filter_in = I:\Willette\OTF\CTD\2007\CTD Data\ctd-07140.cnv
# filter_low_pass_tc_A = 1.000
# filter_low_pass_tc_B = 0.150
# filter_low_pass_A_vars = prdM
# filter_low_pass_B_vars =
# loopedit_date = Oct 15 2007 15:07:00, 5.37e
# loopedit_in = I:\Willette\OTF\CTD\2007\CTD Data\ctd-07140.cnv
# loopedit_minVelocity = 0.250                                                                                            
# loopedit_surfaceSoak: minDepth = 5.0, maxDepth = 20, useDeckPress = 1                                                   
# loopedit_excl_bad_scans = yes
# alignctd_date = Oct 15 2007 15:14:24, 5.37e
# alignctd_in = I:\Willette\OTF\CTD\2007\CTD Data\ctd-07140.cnv
# alignctd_adv = tv290C 0.500, sbeox0Mg/L 4.000, sbeox0PS 4.000                                                                                                                                                                      
# binavg_date = Oct 15 2007 15:18:53, 5.37e
# binavg_in = I:\Willette\OTF\CTD\2007\CTD Data\ctd-07140.cnv
# binavg_bintype = meters
# binavg_binsize = 1
# binavg_excl_bad_scans = yes
# binavg_skipover = 0
# binavg_surface_bin = no, min = 0.000, max = 0.000, value = 0.000
# file_type = ascii
*END*
      5.000     9.0195    31.5133    8.29046   87.85609    24.3852 1.9814e+02      5.051     1.2849 0.0000e+00
      6.000     9.0183    31.5404    8.39630   88.97392    24.4075 1.6757e+02      6.106     1.3586 0.0000e+00
      7.000     9.0165    31.5090    8.49389   90.00265    24.3828 1.5230e+02      7.219     1.3707 0.0000e+00
      8.000     9.0140    31.5054    8.55219   90.62247    24.3805 1.3089e+02      7.966     1.3568 0.0000e+00
      9.000     9.0174    31.5206    8.56989   90.80418    24.3924 1.1065e+02      9.110     1.5107 0.0000e+00
     10.000     9.0151    31.5063    8.65414   91.69723    24.3810 9.7338e+01     10.153     1.4810 0.0000e+00
     11.000     9.0141    31.5098    8.67977   91.96855    24.3842 8.4328e+01     11.096     1.4943 0.0000e+00
     12.000     9.0152    31.5084    8.69395   92.11367    24.3829 7.1764e+01     12.220     1.5199 0.0000e+00
     13.000     9.0131    31.5022    8.73597   92.55846    24.3781 6.2117e+01     13.114     1.5120 0.0000e+00
     14.000     9.0125    31.5060    8.77816   93.00600    24.3814 5.2733e+01     14.049     1.5017 0.0000e+00
     15.000     9.0130    31.5068    8.80940   93.33840    24.3820 4.4671e+01     15.176     1.4764 0.0000e+00
     16.000     9.0110    31.5047    8.80109   93.24663    24.3805 3.8267e+01     16.242     1.4782 0.0000e+00
     17.000     9.0110    31.5039    8.82293   93.47553    24.3801 3.2781e+01     17.164     1.4734 0.0000e+00
     18.000     9.0108    31.5039    8.84958   93.75853    24.3800 2.7840e+01     18.118     1.4565 0.0000e+00
     19.000     9.0119    31.5046    8.87984   94.08215    24.3806 2.3807e+01     19.173     1.3886 0.0000e+00
     20.000     9.0103    31.5027    8.86203   93.89334    24.3790 2.0373e+01     20.253     1.4088 0.0000e+00
     21.000     9.0089    31.5035    8.82607   93.50993    24.3799 1.7647e+01     21.213     1.4096 0.0000e+00
     22.000     9.0095    31.5029    8.84446   93.70528    24.3796 1.5304e+01     22.150     1.4192 0.0000e+00
     23.000     9.0105    31.5029    8.85111   93.77535    24.3794 1.3171e+01     23.142     1.4062 0.0000e+00
     24.000     9.0111    31.5025    8.85239   93.78864    24.3788 1.1294e+01     24.301     1.3910 0.0000e+00
     25.000     9.0099    31.5010    8.83473   93.60131    24.3779 9.8877e+00     25.258     1.3989 0.0000e+00
     26.000     9.0101    31.5024    8.84264   93.68612    24.3790 8.6440e+00     26.207     1.3542 0.0000e+00
     27.000     9.0101    31.5016    8.86932   93.97220    24.3783 7.5741e+00     27.251     1.4431 0.0000e+00
     28.000     9.0100    31.5015    8.83896   93.64891    24.3783 6.6758e+00     28.275     1.3957 0.0000e+00
     29.000     9.0103    31.5005    8.82173   93.45849    24.3775 5.9214e+00     29.273     1.4282 0.0000e+00
     30.000     9.0107    31.5001    8.90422   94.33029    24.3771 5.2808e+00     30.199     1.4341 0.0000e+00
     31.000     9.0123    31.5015    9.00499   95.39716    24.3780 4.6923e+00     31.316     1.4113 0.0000e+00
     32.000     9.0118    31.4968    9.07406   96.12757    24.3741 4.2296e+00     32.488     1.4280 0.0000e+00
     33.000     9.0094    31.4924    9.10175   96.42018    24.3710 3.8699e+00     33.347     1.4522 0.0000e+00
     34.000     9.0086    31.4933    9.12301   96.64510    24.3720 3.5267e+00     34.237     1.4766 0.0000e+00
     35.000     9.0079    31.4947    9.13692   96.79263    24.3732 3.2158e+00     35.373     1.4717 0.0000e+00
     36.000     9.0073    31.4953    9.15123   96.94577    24.3738 2.9829e+00     36.447     1.4726 0.0000e+00
     37.000     9.0066    31.4959    9.16109   97.05047    24.3744 2.7808e+00     37.305     1.4669 0.0000e+00
     38.000     9.0063    31.4969    9.17186   97.16506    24.3752 2.5866e+00     38.292     1.4466 0.0000e+00
     39.000     9.0063    31.4973    9.17188   97.16545    24.3757 2.4252e+00     39.372     1.4114 0.0000e+00
     40.000     9.0072    31.4967    9.17401   97.18799    24.3750 2.2909e+00     40.415     1.3621 0.0000e+00
     41.000     9.0075    31.4961    9.18268   97.27976    24.3745 2.1827e+00     41.382     1.3450 0.0000e+00
     42.000     9.0076    31.4959    9.19124   97.37072    24.3743 2.0874e+00     42.243     1.3569 0.0000e+00
     43.000     9.0078    31.4961    9.19719   97.43470    24.3744 1.9964e+00     43.377     1.3530 0.0000e+00
     44.000     9.0078    31.4963    9.20506   97.51682    24.3746 1.9350e+00     44.378     1.3673 0.0000e+00
     45.000     9.0076    31.4961    9.21068   97.57611    24.3744 1.8790e+00     45.066     1.4198 0.0000e+00
     46.000     9.0079    31.4968    9.21166   97.58681    24.3750 1.8025e+00     46.027     1.3098 0.0000e+00
     45.000 -9.990e-29 -9.990e-29 -9.990e-29 -9.990e-29 -9.990e-29 -9.990e-29 -9.990e-29 -9.990e-29 -9.990e-29
     44.000     9.0083    31.4961    9.24559   97.94640    24.3744 1.9256e+00     44.314     1.3706 0.0000e+00
     43.000     9.0080    31.4964    9.24922   97.98403    24.3746 2.0035e+00     43.411     1.3805 0.0000e+00
     42.000     9.0078    31.4959    9.24541   97.94427    24.3743 2.0753e+00     42.340     1.3679 0.0000e+00
     41.000     9.0075    31.4960    9.24842   97.97519    24.3743 2.1659e+00     41.405     1.3773 0.0000e+00
     40.000     9.0078    31.4960    9.25121   98.00391    24.3744 2.2722e+00     40.397     1.3726 0.0000e+00
     39.000     9.0070    31.4965    9.24602   97.94904    24.3748 2.4100e+00     39.345     1.3940 0.0000e+00
     38.000     9.0067    31.4965    9.25318   98.02397    24.3749 2.5647e+00     38.361     1.3768 0.0000e+00
     37.000     9.0066    31.4963    9.25865   98.08121    24.3748 2.7521e+00     37.351     1.3720 0.0000e+00
     36.000     9.0069    31.4963    9.25703   98.06415    24.3747 2.9604e+00     36.360     1.3454 0.0000e+00
     35.000     9.0056    31.4967    9.26215   98.11702    24.3752 3.2364e+00     35.310     1.3554 0.0000e+00
     34.000     9.0056    31.4968    9.26807   98.18069    24.3753 3.5481e+00     34.337     1.3938 0.0000e+00
     33.000     9.0060    31.4968    9.27442   98.24913    24.3752 3.8984e+00     33.358     1.3933 0.0000e+00
     32.000     9.0063    31.4957    9.27549   98.26161    24.3743 4.3583e+00     32.302     1.4036 0.0000e+00
     31.000     9.0070    31.4952    9.28040   98.31455    24.3739 4.8731e+00     31.309     1.4109 0.0000e+00
     30.000     9.0082    31.4941    9.28172   98.32731    24.3728 5.4879e+00     30.260     1.4124 0.0000e+00
     29.000     9.0076    31.4945    9.27749   98.28267    24.3732 6.2177e+00     29.288     1.3884 0.0000e+00
     28.000     9.0077    31.4941    9.27321   98.23663    24.3728 7.0894e+00     28.251     1.3950 0.0000e+00
     27.000     9.0075    31.4941    9.27761   98.28211    24.3729 8.1576e+00     27.243     1.4434 0.0000e+00
     26.000     9.0072    31.4948    9.28145   98.32374    24.3735 9.3960e+00     26.262     1.4407 0.0000e+00
     25.000     9.0068    31.4938    9.28102   98.31773    24.3727 1.1049e+01     25.140     1.4113 0.0000e+00
     24.000     9.0070    31.4934    9.27969   98.30392    24.3724 1.2972e+01     24.257     1.4159 0.0000e+00
     23.000     9.0072    31.4936    9.28032   98.31053    24.3726 1.5213e+01     23.162     1.4250 0.0000e+00
     22.000     9.0068    31.4937    9.27651   98.27087    24.3727 1.8180e+01     22.199     1.4462 0.0000e+00
     21.000     9.0072    31.4938    9.27787   98.28579    24.3728 2.1380e+01     21.095     1.3716 0.0000e+00
     20.000     9.0073    31.4928    9.27599   98.26466    24.3719 2.5662e+01     20.219     1.3806 0.0000e+00
     19.000     9.0076    31.4930    9.27852   98.29347    24.3720 3.0317e+01     19.227     1.3870 0.0000e+00
     18.000     9.0071    31.4922    9.27716   98.27845    24.3715 3.6032e+01     18.159     1.3887 0.0000e+00
     17.000     9.0080    31.4924    9.27748   98.28498    24.3715 4.1816e+01     17.214     1.4233 0.0000e+00
     16.000     9.0079    31.4919    9.28343   98.34787    24.3711 4.8845e+01     16.116     1.4816 0.0000e+00
     15.000     9.0096    31.4914    9.28299   98.34143    24.3705 5.6428e+01     15.122     1.6163 0.0000e+00
     14.000     9.0094    31.4911    9.28507   98.36852    24.3702 6.5738e+01     14.181     1.5584 0.0000e+00
     13.000     9.0081    31.4919    9.28322   98.35510    24.3712 7.7526e+01     12.900     1.5860 0.0000e+00
     12.000     9.0111    31.4908    9.28622   98.38506    24.3699 9.0937e+01     12.161     1.5100 0.0000e+00
     11.000     9.0139    31.4900    9.28501   98.37572    24.3689 1.0490e+02     10.972     1.4543 0.0000e+00
     10.000     9.0136    31.4890    9.29033   98.43321    24.3679 1.2320e+02     10.182     1.5487 0.0000e+00
      9.000     9.0143    31.4895    9.29298   98.45912    24.3684 1.4650e+02      9.060     1.4478 0.0000e+00
      8.000     9.0157    31.4892    9.28804   98.40191    24.3678 1.7020e+02      8.045     1.3247 0.0000e+00
      7.000     9.0146    31.4892    9.28464   98.36918    24.3679 2.0075e+02      7.083     1.2776 0.0000e+00
      6.000     9.0120    31.4905    9.28901   98.41479    24.3693 2.2711e+02      6.025     1.1044 0.0000e+00
      5.000     9.0131    31.4920    9.28208   98.34414    24.3705 2.8019e+02      5.100     1.0493 0.0000e+00
      4.000     9.0131    31.4913    9.28824   98.41558    24.3698 2.9665e+02      3.993     1.0351 0.0000e+00
      3.000     9.0141    31.4916    9.28928   98.43446    24.3700 2.9281e+02      3.077     0.9896 0.0000e+00
      2.000     9.0170    31.4917    9.26253   98.15656    24.3697 3.3270e+02      2.041     0.9200 0.0000e+00
      1.000     9.0213    31.4910    9.68855   97.02543    24.3684 6.1122e+02      1.062     0.8736 0.0000e+00
