* Sea-Bird SBE19plus Data File:
* FileName = C:\data\otf\2007\ctd-07071.hex
* Software Version 1.55
* Temperature SN =  5061
* Conductivity SN =  5061
* System UpLoad Time = Aug 15 2007 16:17:01
* ds
* SeacatPlus V 1.6a  SERIAL NO. 5061    15 Aug 2007  15:31:53
* vbatt = 10.9, vlith =  8.7, ioper =  61.6 ma, ipump =  57.5 ma, 
* iext01 =  95.2 ma
* iext23 =  58.1 ma
* 
* status = not logging
* number of scans to average = 1
* samples = 153039, free = 288466, casts = 154
* mode = profile, minimum cond freq = 3000, pump delay = 60 sec
* autorun = no, ignore magnetic switch = no
* battery type = alkaline, battery cutoff =  7.3 volts
* pressure sensor = strain gauge, range = 870.0
* SBE 38 = no, Gas Tension Device = no
* Ext Volt 0 = yes, Ext Volt 1 = yes, Ext Volt 2 = yes, Ext Volt 3 = yes
* echo commands = yes
* output format = raw HEX
* S>
* 
* SeacatPlus V 1.6a  SERIAL NO. 5061    15 Aug 2007  15:32:18
* temperature:  05-oct-06
*     TA0 = 1.254184e-03
*     TA1 = 2.596730e-04
*     TA2 = 5.165612e-07
*     TA3 = 1.318931e-07
*     TOFFSET = 0.000000e+00
* conductivity:  05-oct-06
*     G = -9.978144e-01
*     H = 1.555200e-01
*     I = -4.839108e-04
*     J = 6.121100e-05
*     CF0 = 2.539936e+03
*     CPCOR = -9.570000e-08
*     CTCOR = 3.250000e-06
*     CSLOPE = 1.000000e+00
* pressure S/N = 2362539, range = 870 psia:  24-aug-06
*     PA0 = 2.171091e-01
*     PA1 = 2.647085e-03
*     PA2 = 1.419397e-11
*     PTCA0 = 5.242437e+05
*     PTCA1 = 7.545345e+00
*     PTCA2 = -1.835354e-01
*     PTCB0 = 2.537125e+01
*     PTCB1 = -1.750000e-03
*     PTCB2 = 0.000000e+00
*     PTEMPA0 = -5.753989e+01
*     PTEMPA1 = 5.235813e+01
*     PTEMPA2 = -4.015521e-02
*     POFFSET = 0.000000e+00
* volt 0: offset = -4.682842e-02, slope = 1.249147e+00
* volt 1: offset = -4.695158e-02, slope = 1.248145e+00
* volt 2: offset = -4.685263e-02, slope = 1.248783e+00
* volt 3: offset = -4.690316e-02, slope = 1.249508e+00
*     EXTFREQSF = 1.000002e+00
* dh
* cast  71 14 Jul 2007 07:00:10 samples 48619 to 48961, avg = 4, stop = mag switch
* S> 
# nquan = 10
# nvalues = 158                         
# units = specified
# name 0 = depSM: Depth [salt water, m]
# name 1 = tv290C: Temperature [ITS-90, deg C]
# name 2 = sal00: Salinity [PSU]
# name 3 = sbeox0Mg/L: Oxygen, SBE 43 [mg/l]
# name 4 = sbeox0PS: Oxygen, SBE 43 [% saturation]
# name 5 = sigma-t00: Density [sigma-t, Kg/m^3 ]
# name 6 = par: PAR/Irradiance, Biospherical/Licor
# name 7 = prdM: Pressure, Strain Gauge [db]
# name 8 = flECO-AFL: Fluorescence, Wetlab ECO-AFL/FL [mg/m^3]
# name 9 = flag: flag
# span 0 =      1.000,     81.000       
# span 1 =     8.1180,     9.4194       
# span 2 =    30.4042,    31.5970       
# span 3 =    8.95816,   11.40240       
# span 4 =   94.31725,  103.67719       
# span 5 =    23.4595,    24.5854       
# span 6 = 1.5489e+00, 7.0775e+01       
# span 7 =      1.777,     80.571       
# span 8 =     0.4288,     0.7101       
# span 9 = 0.0000e+00, 0.0000e+00       
# interval = meters: 1                  
# start_time = Jul 14 2007 07:00:10
# bad_flag = -9.990e-29
# sensor 0 = Frequency 0  temperature, 5061, 05-Oct-06
# sensor 1 = Frequency 1  conductivity, 5061, 05-Oct-06, cpcor = -9.5700e-08
# sensor 2 = Pressure Number
# sensor 3 = Extrnl Volt  0  irradiance (PAR), primary, 4751, 08/10/06
# sensor 4 = Extrnl Volt  1  Oxygen, SBE, primary, 1081, 10/24/06
# sensor 5 = Extrnl Volt  2  WET Labs, ECO_AFL
# sensor 6 = Extrnl Volt  3  userpoly 0, 0627, 10/11/06
# datcnv_date = Oct 15 2007 14:49:45, 5.37e
# datcnv_in = I:\bob d\OTF_GEM\2007\ctd-07071.hex I:\Willette\OTF\CTD\5061.con
# datcnv_skipover = 0
# filter_date = Oct 15 2007 15:02:25, 5.37e
# filter_in = I:\Willette\OTF\CTD\2007\CTD Data\ctd-07071.cnv
# filter_low_pass_tc_A = 1.000
# filter_low_pass_tc_B = 0.150
# filter_low_pass_A_vars = prdM
# filter_low_pass_B_vars =
# loopedit_date = Oct 15 2007 15:06:47, 5.37e
# loopedit_in = I:\Willette\OTF\CTD\2007\CTD Data\ctd-07071.cnv
# loopedit_minVelocity = 0.250                                                                                            
# loopedit_surfaceSoak: minDepth = 5.0, maxDepth = 20, useDeckPress = 1                                                   
# loopedit_excl_bad_scans = yes
# alignctd_date = Oct 15 2007 15:14:15, 5.37e
# alignctd_in = I:\Willette\OTF\CTD\2007\CTD Data\ctd-07071.cnv
# alignctd_adv = tv290C 0.500, sbeox0Mg/L 4.000, sbeox0PS 4.000                                                                                                                                                                      
# binavg_date = Oct 15 2007 15:18:44, 5.37e
# binavg_in = I:\Willette\OTF\CTD\2007\CTD Data\ctd-07071.cnv
# binavg_bintype = meters
# binavg_binsize = 1
# binavg_excl_bad_scans = yes
# binavg_skipover = 0
# binavg_surface_bin = no, min = 0.000, max = 0.000, value = 0.000
# file_type = ascii
*END*
      4.000     9.4194    30.4251    8.95816   94.31725    23.4733 2.2714e+01      5.013     0.5680 0.0000e+00
      5.000     9.4063    30.4345    9.02059   94.91821    23.4808 1.8049e+01      5.832     0.5250 0.0000e+00
      6.000     9.3433    30.4454    9.03987   95.08348    23.4903 1.4329e+01      6.582     0.5030 0.0000e+00
      7.000     9.2252    30.4537    9.08994   95.57888    23.5016 1.1373e+01      7.466     0.4618 0.0000e+00
      8.000     9.1668    30.4820    9.11031   95.76201    23.5331 9.0015e+00      8.313     0.4418 0.0000e+00
      9.000     9.1464    30.5714    9.16199   96.25282    23.6202 7.1986e+00      9.163     0.4288 0.0000e+00
     10.000     9.1280    30.6224    9.29650   97.52610    23.6685 5.8142e+00     10.116     0.4344 0.0000e+00
     11.000     9.1078    30.6319    9.39588   98.34956    23.6785 4.7958e+00     11.117     0.4419 0.0000e+00
     12.000     9.0751    30.6493    9.46315   98.95881    23.6951 4.0521e+00     12.092     0.4335 0.0000e+00
     13.000     9.0328    30.6720    9.52910   99.53695    23.7172 3.4532e+00     13.208     0.4318 0.0000e+00
     14.000     8.9913    30.7024    9.58155   99.98568    23.7468 2.9913e+00     14.296     0.4421 0.0000e+00
     15.000     8.9403    30.7467    9.62231  100.36024    23.7880 2.6572e+00     15.445     0.4533 0.0000e+00
     16.000     8.9020    30.7909    9.65589  100.68831    23.8293 2.4076e+00     16.510     0.4502 0.0000e+00
     17.000     8.8707    30.8283    9.68225  100.95724    23.8641 2.2089e+00     17.489     0.4585 0.0000e+00
     18.000     8.8467    30.8649    9.70756  101.21411    23.8978 2.0566e+00     18.463     0.4768 0.0000e+00
     19.000     8.8315    30.8982    9.72776  101.41374    23.9284 1.9416e+00     19.499     0.4444 0.0000e+00
     20.000     8.8164    30.9143    9.73876  101.52175    23.9440 1.8574e+00     20.393     0.4616 0.0000e+00
     21.000     8.7782    30.9263    9.75378  101.66675    23.9553 1.7885e+00     21.323     0.4582 0.0000e+00
     22.000     8.6778    30.9333    9.76222  101.74275    23.9633 1.7343e+00     22.347     0.4584 0.0000e+00
     23.000     8.5686    30.9763    9.76824  101.80354    24.0025 1.6961e+00     23.250     0.4424 0.0000e+00
     24.000     8.5195    31.0800    9.78005  101.92438    24.0963 1.6654e+00     24.106     0.4439 0.0000e+00
     25.000     8.4756    31.1978    9.79118  102.03374    24.2053 1.6405e+00     25.072     0.4567 0.0000e+00
     26.000     8.4200    31.2607    9.79798  102.10082    24.2649 1.6224e+00     26.169     0.4843 0.0000e+00
     27.000     8.3755    31.2987    9.80039  102.11014    24.3012 1.6093e+00     27.185     0.5476 0.0000e+00
     28.000     8.3497    31.3430    9.80986  102.20116    24.3434 1.5982e+00     28.173     0.4999 0.0000e+00
     29.000     8.3355    31.3801    9.82117  102.29927    24.3787 1.5905e+00     29.159     0.5228 0.0000e+00
     30.000     8.3298    31.4002    9.83757  102.46406    24.3979 1.5840e+00     30.060     0.5341 0.0000e+00
     31.000     8.3284    31.4104    9.83620  102.44488    24.4074 1.5782e+00     31.127     0.5122 0.0000e+00
     32.000     8.3224    31.4152    9.84411  102.52330    24.4120 1.5737e+00     32.146     0.5789 0.0000e+00
     33.000     8.3174    31.4214    9.85313  102.61287    24.4175 1.5698e+00     33.150     0.5551 0.0000e+00
     34.000     8.3110    31.4276    9.85949  102.67794    24.4234 1.5671e+00     34.178     0.5078 0.0000e+00
     35.000     8.3032    31.4313    9.86433  102.72640    24.4270 1.5645e+00     35.252     0.5385 0.0000e+00
     36.000     8.3018    31.4365    9.86686  102.73410    24.4321 1.5625e+00     36.270     0.5070 0.0000e+00
     37.000     8.2982    31.4403    9.87686  102.82822    24.4358 1.5606e+00     37.373     0.5127 0.0000e+00
     38.000     8.2949    31.4422    9.88379  102.89841    24.4377 1.5591e+00     38.464     0.5090 0.0000e+00
     39.000     8.2867    31.4453    9.88519  102.91119    24.4407 1.5578e+00     39.426     0.5194 0.0000e+00
     40.000     8.2808    31.4498    9.89208  102.97321    24.4446 1.5569e+00     40.443     0.5243 0.0000e+00
     41.000     8.2703    31.4585    9.89437  102.99017    24.4528 1.5557e+00     41.495     0.5051 0.0000e+00
     42.000     8.2663    31.4676    9.89467  102.97602    24.4612 1.5551e+00     42.462     0.5086 0.0000e+00
     43.000     8.2624    31.4735    9.89788  102.99314    24.4668 1.5545e+00     43.420     0.5142 0.0000e+00
     44.000     8.2603    31.4766    9.90630  103.05765    24.4698 1.5537e+00     44.395     0.5113 0.0000e+00
     45.000     8.2580    31.4802    9.91220  103.11075    24.4732 1.5532e+00     45.360     0.5204 0.0000e+00
     46.000     8.2575    31.4816    9.91701  103.15819    24.4745 1.5529e+00     46.368     0.5225 0.0000e+00
     47.000     8.2564    31.4846    9.91759  103.15015    24.4773 1.5528e+00     47.427     0.5105 0.0000e+00
     48.000     8.2471    31.4833    9.92318  103.17183    24.4763 1.5523e+00     48.360     0.5466 0.0000e+00
     49.000     8.2398    31.4877    9.92983  103.22239    24.4804 1.5521e+00     49.440     0.5532 0.0000e+00
     50.000     8.2396    31.4954    9.93966  103.31183    24.4876 1.5520e+00     50.390     0.5267 0.0000e+00
     51.000     8.2387    31.4998    9.94545  103.35535    24.4918 1.5518e+00     51.388     0.5088 0.0000e+00
     52.000     8.2336    31.4981    9.95130  103.41875    24.4904 1.5517e+00     52.514     0.5318 0.0000e+00
     53.000     8.2307    31.4998    9.95298  103.43985    24.4919 1.5512e+00     53.405     0.5285 0.0000e+00
     54.000     8.2217    31.5042    9.95495  103.44679    24.4961 1.5514e+00     54.497     0.5737 0.0000e+00
     55.000     8.2112    31.5077    9.95644  103.45242    24.4995 1.5513e+00     55.474     0.5751 0.0000e+00
     56.000     8.1972    31.5164    9.96021  103.49229    24.5079 1.5511e+00     56.468     0.5549 0.0000e+00
     57.000     8.1927    31.5263    9.96299  103.51399    24.5172 1.5511e+00     57.587     0.5378 0.0000e+00
     58.000     8.1917    31.5379    9.96243  103.50961    24.5285 1.5511e+00     58.496     0.5298 0.0000e+00
     59.000     8.1773    31.5379    9.96425  103.52494    24.5284 1.5509e+00     59.523     0.5541 0.0000e+00
     60.000     8.1602    31.5425    9.96418  103.51801    24.5328 1.5507e+00     60.537     0.5637 0.0000e+00
     61.000     8.1521    31.5556    9.96457  103.51949    24.5455 1.5506e+00     61.532     0.5349 0.0000e+00
     62.000     8.1440    31.5690    9.96133  103.48554    24.5582 1.5506e+00     62.470     0.5245 0.0000e+00
     63.000     8.1378    31.5738    9.96348  103.50758    24.5629 1.5509e+00     63.543     0.5536 0.0000e+00
     64.000     8.1399    31.5812    9.96785  103.55312    24.5700 1.5507e+00     64.541     0.5635 0.0000e+00
     65.000     8.1381    31.5830    9.97114  103.58661    24.5716 1.5505e+00     65.562     0.5772 0.0000e+00
     66.000     8.1281    31.5793    9.97071  103.58102    24.5682 1.5503e+00     66.605     0.5754 0.0000e+00
     67.000     8.1255    31.5838    9.97363  103.61150    24.5725 1.5506e+00     67.571     0.5865 0.0000e+00
     68.000     8.1274    31.5902    9.97941  103.67186    24.5787 1.5506e+00     68.470     0.5913 0.0000e+00
     69.000     8.1259    31.5888    9.97653  103.64212    24.5774 1.5507e+00     69.514     0.5770 0.0000e+00
     70.000     8.1266    31.5929    9.97594  103.63556    24.5813 1.5502e+00     70.471     0.5785 0.0000e+00
     71.000     8.1201    31.5913    9.97993  103.67719    24.5798 1.5501e+00     71.547     0.6008 0.0000e+00
     72.000     8.1193    31.5939    9.97807  103.65729    24.5825 1.5502e+00     72.535     0.6039 0.0000e+00
     73.000     8.1191    31.5964    9.97803  103.65667    24.5847 1.5502e+00     73.517     0.6094 0.0000e+00
     74.000     8.1189    31.5965    9.97418  103.61851    24.5848 1.5502e+00     74.513     0.6388 0.0000e+00
     75.000     8.1188    31.5967    9.97193  103.59510    24.5851 1.5499e+00     75.464     0.6209 0.0000e+00
     76.000     8.1185    31.5970    9.97071  103.58201    24.5854 1.5502e+00     76.437     0.6016 0.0000e+00
     77.000     8.1182    31.5967    9.97054  103.58018    24.5851 1.5500e+00     77.256     0.5971 0.0000e+00
     78.000     8.1184    31.5967    9.97179  103.59366    24.5852 1.5501e+00     78.220     0.6623 0.0000e+00
     79.000     8.1185    31.5967    9.97144  103.58983    24.5852 1.5499e+00     78.945     0.6783 0.0000e+00
     80.000     8.1184    31.5967    9.97135  103.59112    24.5852 1.5500e+00     79.696     0.6508 0.0000e+00
     81.000     8.1183    31.5966    9.96823  103.55946    24.5851 1.5507e+00     80.571     0.7101 0.0000e+00
     80.000     8.1187    31.5965    9.97174  103.59973    24.5849 1.5497e+00     79.887     0.6990 0.0000e+00
     79.000     8.1188    31.5967    9.97165  103.59462    24.5852 1.5496e+00     79.161     0.6602 0.0000e+00
     78.000     8.1198    31.5967    9.97550  103.63064    24.5851 1.5492e+00     78.385     0.7026 0.0000e+00
     77.000     8.1200    31.5965    9.97542  103.62960    24.5848 1.5495e+00     77.502     0.6858 0.0000e+00
     76.000     8.1195    31.5961    9.97217  103.59708    24.5844 1.5492e+00     76.637     0.6609 0.0000e+00
     75.000     8.1199    31.5962    9.96359  103.50931    24.5846 1.5496e+00     75.642     0.6185 0.0000e+00
     74.000     8.1202    31.5959    9.96638  103.53856    24.5844 1.5494e+00     74.703     0.6529 0.0000e+00
     73.000     8.1214    31.5958    9.96972  103.57299    24.5842 1.5494e+00     73.697     0.6563 0.0000e+00
     72.000     8.1216    31.5948    9.97321  103.60791    24.5833 1.5495e+00     72.691     0.6299 0.0000e+00
     71.000     8.1195    31.5945    9.97041  103.58996    24.5830 1.5495e+00     71.679     0.6475 0.0000e+00
     70.000     8.1182    31.5957    9.97213  103.63704    24.5843 1.5494e+00     70.624     0.6459 0.0000e+00
     69.000     8.1180    31.5968    9.97171  103.67156    24.5853 1.5492e+00     69.653     0.6621 0.0000e+00
     68.000     8.1189    31.5969    9.96899  103.64871    24.5854 1.5495e+00     68.681     0.6548 0.0000e+00
     67.000     8.1194    31.5964    9.96068  103.54256    24.5849 1.5493e+00     67.622     0.6469 0.0000e+00
     66.000     8.1198    31.5955    9.96589  103.62939    24.5842 1.5490e+00     66.650     0.6165 0.0000e+00
     65.000     8.1195    31.5953    9.96706  103.66369    24.5839 1.5492e+00     65.664     0.6224 0.0000e+00
     64.000     8.1188    31.5947    9.96029  103.59958    24.5834 1.5493e+00     64.733     0.6739 0.0000e+00
     63.000     8.1266    31.5955    9.95883  103.58144    24.5842 1.5494e+00     63.749     0.6460 0.0000e+00
     62.000     8.1463    31.5897    9.95939  103.60638    24.5785 1.5490e+00     62.697     0.6336 0.0000e+00
     61.000     8.1670    31.5748    9.95028  103.55656    24.5642 1.5491e+00     61.757     0.6735 0.0000e+00
     60.000     8.1586    31.5534    9.94033  103.46879    24.5437 1.5492e+00     60.610     0.6688 0.0000e+00
     59.000     8.1661    31.5657    9.93708  103.43765    24.5554 1.5492e+00     59.610     0.5985 0.0000e+00
     58.000     8.1830    31.5530    9.93075  103.38582    24.5432 1.5490e+00     58.595     0.5781 0.0000e+00
     57.000     8.1872    31.5418    9.91654  103.24469    24.5326 1.5494e+00     57.511     0.5734 0.0000e+00
     56.000     8.1889    31.5397    9.91637  103.25015    24.5306 1.5491e+00     56.488     0.5323 0.0000e+00
     55.000     8.2126    31.5361    9.91677  103.26009    24.5271 1.5492e+00     55.505     0.5893 0.0000e+00
     54.000     8.2259    31.5160    9.91605  103.26458    24.5079 1.5491e+00     54.461     0.5915 0.0000e+00
     53.000     8.2297    31.5073    9.91053  103.21363    24.4995 1.5489e+00     53.496     0.6164 0.0000e+00
     52.000     8.2362    31.5047    9.90993  103.21720    24.4970 1.5493e+00     52.430     0.5948 0.0000e+00
     51.000     8.2416    31.4993    9.90628  103.19520    24.4918 1.5495e+00     51.424     0.5772 0.0000e+00
     50.000     8.2439    31.4949    9.90219  103.16156    24.4875 1.5496e+00     50.447     0.5625 0.0000e+00
     49.000     8.2485    31.4928    9.89775  103.12748    24.4856 1.5495e+00     49.447     0.6040 0.0000e+00
     48.000     8.2510    31.4887    9.88878  103.04320    24.4817 1.5498e+00     48.472     0.5888 0.0000e+00
     47.000     8.2572    31.4867    9.88934  103.05244    24.4798 1.5498e+00     47.510     0.5440 0.0000e+00
     46.000     8.2610    31.4812    9.89168  103.08004    24.4746 1.5502e+00     46.491     0.5823 0.0000e+00
     45.000     8.2699    31.4780    9.88794  103.04390    24.4715 1.5505e+00     45.471     0.5696 0.0000e+00
     44.000     8.2760    31.4593    9.88428  103.00616    24.4555 1.5507e+00     44.452     0.5361 0.0000e+00
     43.000     8.2816    31.4637    9.88205  102.98478    24.4582 1.5514e+00     43.435     0.5724 0.0000e+00
     42.000     8.2902    31.4573    9.88324  103.01570    24.4522 1.5516e+00     42.375     0.5863 0.0000e+00
     41.000     8.2950    31.4479    9.87982  103.00195    24.4436 1.5527e+00     41.288     0.5382 0.0000e+00
     40.000     8.2967    31.4447    9.86604  102.86851    24.4405 1.5537e+00     40.312     0.5222 0.0000e+00
     39.000     8.2986    31.4418    9.85092  102.71988    24.4380 1.5546e+00     39.304     0.5073 0.0000e+00
     38.000     8.3002    31.4410    9.84487  102.66860    24.4371 1.5556e+00     38.250     0.6474 0.0000e+00
     37.000     8.2997    31.4387    9.83936  102.64842    24.4351 1.5571e+00     37.326     0.5314 0.0000e+00
     36.000     8.3009    31.4395    9.84413  102.76415    24.4357 1.5589e+00     36.220     0.5255 0.0000e+00
     35.000     8.3101    31.4387    9.83390  102.72598    24.4350 1.5611e+00     35.342     0.5186 0.0000e+00
     34.000     8.3209    31.4311    9.81918  102.62324    24.4277 1.5633e+00     34.329     0.5104 0.0000e+00
     33.000     8.3285    31.4215    9.81062  102.59186    24.4187 1.5669e+00     33.347     0.5330 0.0000e+00
     32.000     8.3332    31.4111    9.79994  102.61135    24.4091 1.5704e+00     32.291     0.5352 0.0000e+00
     31.000     8.3391    31.4079    9.78110  102.50743    24.4062 1.5751e+00     31.357     0.5371 0.0000e+00
     30.000     8.3548    31.4020    9.76339  102.43451    24.4007 1.5805e+00     30.342     0.5578 0.0000e+00
     29.000     8.3764    31.3889    9.74020  102.25686    24.3886 1.5875e+00     29.376     0.5177 0.0000e+00
     28.000     8.4277    31.3604    9.72213  102.13828    24.3614 1.5961e+00     28.292     0.5047 0.0000e+00
     27.000     8.4638    31.3202    9.70404  101.97409    24.3233 1.6075e+00     27.213     0.5549 0.0000e+00
     26.000     8.5018    31.2889    9.69350  101.90129    24.2936 1.6212e+00     26.171     0.5631 0.0000e+00
     25.000     8.5851    31.2565    9.68931  101.89708    24.2632 1.6384e+00     25.085     0.5969 0.0000e+00
     24.000     8.6456    31.1820    9.68060  101.84763    24.1950 1.6620e+00     24.138     0.4750 0.0000e+00
     23.000     8.7109    31.0981    9.67165  101.82503    24.1176 1.6940e+00     23.080     0.4572 0.0000e+00
     22.000     8.7545    31.0293    9.65874  101.76830    24.0549 1.7351e+00     22.055     0.5258 0.0000e+00
     21.000     8.7925    30.9860    9.64783  101.71663    24.0147 1.7885e+00     21.076     0.4650 0.0000e+00
     20.000     8.8071    30.9416    9.64221  101.70905    23.9734 1.8542e+00     20.068     0.4353 0.0000e+00
     19.000     8.8157    30.9287    9.63492  101.72371    23.9611 1.9430e+00     19.101     0.4600 0.0000e+00
     18.000     8.8380    30.9221    9.63013  101.71513    23.9548 2.0593e+00     18.084     0.4590 0.0000e+00
     17.000     8.8547    30.9063    9.62281  101.67093    23.9400 2.2065e+00     17.192     0.4565 0.0000e+00
     16.000     8.8804    30.8828    9.62067  101.68024    23.9182 2.4088e+00     16.110     0.4835 0.0000e+00
     15.000     8.9121    30.8621    9.61402  101.77675    23.8995 2.6696e+00     15.193     0.4643 0.0000e+00
     14.000     8.9500    30.8260    9.60218  101.79076    23.8663 3.0128e+00     14.235     0.4684 0.0000e+00
     13.000     8.9864    30.7915    9.59000  101.75906    23.8343 3.4528e+00     13.307     0.4634 0.0000e+00
     12.000     9.0259    30.7448    9.57963  101.71968    23.7907 4.0548e+00     12.280     0.4369 0.0000e+00
     11.000     9.0626    30.7096    9.57269  101.64894    23.7574 4.8624e+00     11.263     0.4739 0.0000e+00
     10.000     9.1090    30.6767    9.55633  101.45267    23.7255 5.9032e+00     10.177     0.4872 0.0000e+00
      9.000     9.1358    30.6418    9.55166  101.37777    23.6913 7.2525e+00      9.135     0.4755 0.0000e+00
      8.000     9.1540    30.6220    9.47509  100.54513    23.6718 9.0356e+00      8.131     0.4621 0.0000e+00
      7.000     9.2570    30.6067   10.45993   99.84108    23.6568 1.1372e+01      7.095     0.4593 0.0000e+00
      6.000     9.3405    30.5349   11.15520  100.03139    23.5854 1.4280e+01      6.108     0.4477 0.0000e+00
      5.000     9.3930    30.4939   11.29732  100.42624    23.5408 1.7864e+01      5.165     0.4567 0.0000e+00
      4.000     9.4103    30.4644   11.35515  100.56113    23.5091 2.2427e+01      4.202     0.5328 0.0000e+00
      3.000     9.4123    30.4488   11.38664  100.61285    23.4942 2.7769e+01      3.320     0.5301 0.0000e+00
      2.000     9.4072    30.4298   11.40240  100.62435    23.4789 3.4812e+01      2.502     0.5667 0.0000e+00
      1.000     9.4029    30.4042   11.39749  100.63787    23.4595 7.0775e+01      1.777     0.6222 0.0000e+00
