* Sea-Bird SBE19plus Data File:
* FileName = C:\data\otf\2007\ctd-07022.hex
* Software Version 1.55
* Temperature SN =  5061
* Conductivity SN =  5061
* System UpLoad Time = Aug 15 2007 15:59:04
* ds
* SeacatPlus V 1.6a  SERIAL NO. 5061    15 Aug 2007  15:31:53
* vbatt = 10.9, vlith =  8.7, ioper =  61.6 ma, ipump =  57.5 ma, 
* iext01 =  95.2 ma
* iext23 =  58.1 ma
* 
* status = not logging
* number of scans to average = 1
* samples = 153039, free = 288466, casts = 154
* mode = profile, minimum cond freq = 3000, pump delay = 60 sec
* autorun = no, ignore magnetic switch = no
* battery type = alkaline, battery cutoff =  7.3 volts
* pressure sensor = strain gauge, range = 870.0
* SBE 38 = no, Gas Tension Device = no
* Ext Volt 0 = yes, Ext Volt 1 = yes, Ext Volt 2 = yes, Ext Volt 3 = yes
* echo commands = yes
* output format = raw HEX
* S>
* 
* SeacatPlus V 1.6a  SERIAL NO. 5061    15 Aug 2007  15:32:18
* temperature:  05-oct-06
*     TA0 = 1.254184e-03
*     TA1 = 2.596730e-04
*     TA2 = 5.165612e-07
*     TA3 = 1.318931e-07
*     TOFFSET = 0.000000e+00
* conductivity:  05-oct-06
*     G = -9.978144e-01
*     H = 1.555200e-01
*     I = -4.839108e-04
*     J = 6.121100e-05
*     CF0 = 2.539936e+03
*     CPCOR = -9.570000e-08
*     CTCOR = 3.250000e-06
*     CSLOPE = 1.000000e+00
* pressure S/N = 2362539, range = 870 psia:  24-aug-06
*     PA0 = 2.171091e-01
*     PA1 = 2.647085e-03
*     PA2 = 1.419397e-11
*     PTCA0 = 5.242437e+05
*     PTCA1 = 7.545345e+00
*     PTCA2 = -1.835354e-01
*     PTCB0 = 2.537125e+01
*     PTCB1 = -1.750000e-03
*     PTCB2 = 0.000000e+00
*     PTEMPA0 = -5.753989e+01
*     PTEMPA1 = 5.235813e+01
*     PTEMPA2 = -4.015521e-02
*     POFFSET = 0.000000e+00
* volt 0: offset = -4.682842e-02, slope = 1.249147e+00
* volt 1: offset = -4.695158e-02, slope = 1.248145e+00
* volt 2: offset = -4.685263e-02, slope = 1.248783e+00
* volt 3: offset = -4.690316e-02, slope = 1.249508e+00
*     EXTFREQSF = 1.000002e+00
* dh
* cast  22 06 Jul 2007 06:36:03 samples 31650 to 31855, avg = 4, stop = mag switch
* S> 
# nquan = 10
# nvalues = 104                         
# units = specified
# name 0 = depSM: Depth [salt water, m]
# name 1 = tv290C: Temperature [ITS-90, deg C]
# name 2 = sal00: Salinity [PSU]
# name 3 = sbeox0Mg/L: Oxygen, SBE 43 [mg/l]
# name 4 = sbeox0PS: Oxygen, SBE 43 [% saturation]
# name 5 = sigma-t00: Density [sigma-t, Kg/m^3 ]
# name 6 = par: PAR/Irradiance, Biospherical/Licor
# name 7 = prdM: Pressure, Strain Gauge [db]
# name 8 = flECO-AFL: Fluorescence, Wetlab ECO-AFL/FL [mg/m^3]
# name 9 = flag: flag
# span 0 =      1.000,     54.000       
# span 1 =     8.4403,     9.1077       
# span 2 =    30.2249,    30.9280       
# span 3 =    8.99215,   11.75613       
# span 4 =   94.52038,  110.54615       
# span 5 =    23.3639,    24.0145       
# span 6 = 1.5502e+00, 1.5255e+02       
# span 7 =      1.927,     53.191       
# span 8 =     0.5990,     1.0130       
# span 9 = 0.0000e+00, 0.0000e+00       
# interval = meters: 1                  
# start_time = Jul 06 2007 06:36:03
# bad_flag = -9.990e-29
# sensor 0 = Frequency 0  temperature, 5061, 05-Oct-06
# sensor 1 = Frequency 1  conductivity, 5061, 05-Oct-06, cpcor = -9.5700e-08
# sensor 2 = Pressure Number
# sensor 3 = Extrnl Volt  0  irradiance (PAR), primary, 4751, 08/10/06
# sensor 4 = Extrnl Volt  1  Oxygen, SBE, primary, 1081, 10/24/06
# sensor 5 = Extrnl Volt  2  WET Labs, ECO_AFL
# sensor 6 = Extrnl Volt  3  userpoly 0, 0627, 10/11/06
# datcnv_date = Oct 15 2007 14:49:43, 5.37e
# datcnv_in = I:\bob d\OTF_GEM\2007\ctd-07022.hex I:\Willette\OTF\CTD\5061.con
# datcnv_skipover = 0
# filter_date = Oct 15 2007 15:02:22, 5.37e
# filter_in = I:\Willette\OTF\CTD\2007\CTD Data\ctd-07022.cnv
# filter_low_pass_tc_A = 1.000
# filter_low_pass_tc_B = 0.150
# filter_low_pass_A_vars = prdM
# filter_low_pass_B_vars =
# loopedit_date = Oct 15 2007 15:06:45, 5.37e
# loopedit_in = I:\Willette\OTF\CTD\2007\CTD Data\ctd-07022.cnv
# loopedit_minVelocity = 0.250                                                                                            
# loopedit_surfaceSoak: minDepth = 5.0, maxDepth = 20, useDeckPress = 1                                                   
# loopedit_excl_bad_scans = yes
# alignctd_date = Oct 15 2007 15:14:13, 5.37e
# alignctd_in = I:\Willette\OTF\CTD\2007\CTD Data\ctd-07022.cnv
# alignctd_adv = tv290C 0.500, sbeox0Mg/L 4.000, sbeox0PS 4.000                                                                                                                                                                      
# binavg_date = Oct 15 2007 15:18:42, 5.37e
# binavg_in = I:\Willette\OTF\CTD\2007\CTD Data\ctd-07022.cnv
# binavg_bintype = meters
# binavg_binsize = 1
# binavg_excl_bad_scans = yes
# binavg_skipover = 0
# binavg_surface_bin = no, min = 0.000, max = 0.000, value = 0.000
# file_type = ascii
*END*
      4.000     9.0582    30.2249    8.99215   94.52038    23.3639 1.8434e+01      4.612     0.7165 0.0000e+00
      5.000     9.0422    30.2808    9.03818   94.93596    23.4114 1.1704e+01      5.215     0.6874 0.0000e+00
      6.000     9.0384    30.3079    9.15192   95.81221    23.4376 8.1419e+00      6.020     0.7057 0.0000e+00
      7.000     9.0284    30.3545    9.19043   96.07038    23.4769 5.6648e+00      6.998     0.6971 0.0000e+00
      8.000     9.0054    30.3697    9.16929   95.79016    23.4919 4.2013e+00      8.317     0.7767 0.0000e+00
      9.000     9.0005    30.4003    9.20317   96.11356    23.5182 3.2729e+00      9.463     0.7625 0.0000e+00
     10.000     8.9943    30.4032    9.12665   95.28973    23.5209 2.6970e+00     10.766     0.7704 0.0000e+00
     11.000     8.9797    30.4046    9.20738   96.08958    23.5224 2.2950e+00     11.687     0.7380 0.0000e+00
     12.000     8.9662    30.4065    9.40855   98.17430    23.5250 2.0492e+00     12.550     0.7449 0.0000e+00
     13.000     8.8796    30.4180    9.53227   99.43351    23.5363 1.8811e+00     13.464     0.7380 0.0000e+00
     14.000     8.7384    30.4417    9.62150  100.34031    23.5593 1.7649e+00     14.377     0.7387 0.0000e+00
     15.000     8.6561    30.5180    9.67196  100.85672    23.6328 1.6872e+00     15.232     0.7190 0.0000e+00
     16.000     8.6335    30.6314    9.70970  101.24966    23.7420 1.6424e+00     16.116     0.6662 0.0000e+00
     17.000     8.6230    30.6967    9.73116  101.47217    23.8037 1.6129e+00     17.046     0.6304 0.0000e+00
     18.000     8.6076    30.7164    9.74353  101.60124    23.8211 1.5919e+00     17.967     0.6232 0.0000e+00
     19.000     8.5895    30.7299    9.77018  101.86067    23.8338 1.5798e+00     19.074     0.6410 0.0000e+00
     20.000     8.5835    30.7436    9.78131  101.97200    23.8470 1.5718e+00     19.937     0.6334 0.0000e+00
     21.000     8.5746    30.7587    9.81052  102.27399    23.8607 1.5659e+00     21.069     0.6353 0.0000e+00
     22.000     8.5486    30.7658    9.82010  102.37536    23.8674 1.5618e+00     22.302     0.6355 0.0000e+00
     23.000     8.5386    30.7622    9.83372  102.52086    23.8662 1.5590e+00     23.251     0.6256 0.0000e+00
     24.000     8.5128    30.7929    9.85629  102.75998    23.8944 1.5572e+00     24.453     0.6144 0.0000e+00
     25.000     8.5016    30.8108    9.87092  102.90770    23.9109 1.5560e+00     25.544     0.6002 0.0000e+00
     26.000     8.4982    30.8257    9.88216  103.02062    23.9250 1.5548e+00     26.604     0.6235 0.0000e+00
     27.000     8.4974    30.8316    9.89994  103.20181    23.9305 1.5543e+00     27.648     0.6052 0.0000e+00
     28.000     8.4971    30.8322    9.89744  103.17028    23.9311 1.5539e+00     28.484     0.6083 0.0000e+00
     29.000     8.4898    30.8324    9.90827  103.28170    23.9313 1.5536e+00     29.340     0.6001 0.0000e+00
     30.000     8.4804    30.8336    9.90843  103.28179    23.9323 1.5532e+00     30.348     0.6067 0.0000e+00
     31.000     8.4792    30.8488    9.90440  103.25001    23.9457 1.5529e+00     31.319     0.6031 0.0000e+00
     32.000     8.4783    30.8579    9.91292  103.34050    23.9537 1.5527e+00     32.090     0.5990 0.0000e+00
     33.000     8.4746    30.8598    9.91951  103.40265    23.9554 1.5525e+00     33.199     0.6204 0.0000e+00
     34.000     8.4756    30.8643    9.90782  103.27399    23.9591 1.5528e+00     34.231     0.6251 0.0000e+00
     35.000     8.4765    30.8711    9.92661  103.47158    23.9650 1.5527e+00     34.940     0.6106 0.0000e+00
     36.000     8.4735    30.8755    9.94325  103.62561    23.9681 1.5526e+00     36.184     0.6026 0.0000e+00
     37.000     8.4718    30.8889    9.92854  103.46700    23.9787 1.5527e+00     37.223     0.6381 0.0000e+00
     38.000     8.4682    30.8897    9.94595  103.64286    23.9799 1.5521e+00     38.353     0.6911 0.0000e+00
     39.000     8.4652    30.8939    9.95273  103.71123    23.9834 1.5524e+00     39.303     0.7100 0.0000e+00
     40.000     8.4591    30.9017    9.92843  103.45857    23.9903 1.5525e+00     40.744     0.7706 0.0000e+00
     41.000     8.4606    30.9035    9.92846  103.46111    23.9921 1.5523e+00     41.448     0.7491 0.0000e+00
     42.000     8.4661    30.9059    9.92311  103.40536    23.9942 1.5524e+00     42.647     0.7807 0.0000e+00
     43.000     8.4674    30.9049    9.92242  103.40056    23.9934 1.5520e+00     43.612     0.7913 0.0000e+00
     44.000     8.4634    30.8977    9.93780  103.56054    23.9870 1.5522e+00     44.450     0.7825 0.0000e+00
     45.000     8.4593    30.8988    9.95196  103.70563    23.9876 1.5521e+00     45.524     0.7899 0.0000e+00
     46.000     8.4600    30.9045    9.94299  103.60965    23.9929 1.5522e+00     46.361     0.7623 0.0000e+00
     47.000     8.4499    30.9063    9.93590  103.53885    23.9946 1.5521e+00     47.287     0.7415 0.0000e+00
     48.000     8.4468    30.9117    9.93571  103.53800    23.9994 1.5519e+00     48.123     0.7683 0.0000e+00
     49.000 -9.990e-29 -9.990e-29 -9.990e-29 -9.990e-29 -9.990e-29 -9.990e-29 -9.990e-29 -9.990e-29 -9.990e-29
     50.000     8.4416    30.9231    9.93838  103.56667    24.0100 1.5518e+00     49.670     0.8616 0.0000e+00
     51.000     8.4403    30.9255    9.94670  103.65229    24.0121 1.5516e+00     50.636     0.8921 0.0000e+00
     52.000     8.4403    30.9279    9.94213  103.60442    24.0144 1.5516e+00     51.301     0.9473 0.0000e+00
     53.000     8.4411    30.9280    9.94672  103.65469    24.0145 1.5518e+00     51.815     0.9472 0.0000e+00
     54.000     8.4427    30.9274    9.95303  103.72935    24.0139 1.5515e+00     53.191     0.9570 0.0000e+00
     53.000     8.4427    30.9260    9.96943  103.91256    24.0127 1.5510e+00     52.486     0.9979 0.0000e+00
     52.000     8.4426    30.9262    9.97113  103.93626    24.0128 1.5504e+00     51.808     1.0130 0.0000e+00
     51.000     8.4451    30.9264    9.96119  103.83548    24.0130 1.5502e+00     51.075     0.9869 0.0000e+00
     50.000     8.4464    30.9236    9.98026  104.03877    24.0105 1.5504e+00     50.227     0.9619 0.0000e+00
     49.000     8.4476    30.9218    9.98083  104.04928    24.0088 1.5506e+00     49.307     0.9189 0.0000e+00
     48.000     8.4495    30.9200    9.98465  104.09119    24.0072 1.5508e+00     48.368     0.9017 0.0000e+00
     47.000     8.4497    30.9174    9.97983  104.04174    24.0048 1.5509e+00     47.348     0.9459 0.0000e+00
     46.000     8.4522    30.9172    9.98543  104.10034    24.0047 1.5511e+00     46.424     0.9801 0.0000e+00
     45.000     8.4579    30.9147    9.98703  104.11582    24.0024 1.5510e+00     45.400     0.8899 0.0000e+00
     44.000     8.4611    30.9083    9.99406  104.18917    23.9967 1.5510e+00     44.441     0.8443 0.0000e+00
     43.000     8.4632    30.9038    9.98784  104.12183    23.9925 1.5509e+00     43.341     0.8166 0.0000e+00
     42.000     8.4660    30.9015    9.97699  104.00593    23.9905 1.5510e+00     42.480     0.8253 0.0000e+00
     41.000     8.4698    30.8968    9.98379  104.07665    23.9864 1.5507e+00     41.347     0.7750 0.0000e+00
     40.000     8.4707    30.8926    9.97458  103.98160    23.9827 1.5511e+00     40.412     0.7455 0.0000e+00
     39.000     8.4710    30.8908    9.98164  104.06181    23.9810 1.5507e+00     39.344     0.7890 0.0000e+00
     38.000     8.4713    30.8908    9.97371  103.98329    23.9809 1.5505e+00     38.319     0.8125 0.0000e+00
     37.000     8.4723    30.8905    9.97217  103.96841    23.9806 1.5509e+00     37.394     0.7375 0.0000e+00
     36.000     8.4742    30.8850    9.97578  104.01000    23.9762 1.5509e+00     36.262     0.7282 0.0000e+00
     35.000     8.4746    30.8807    9.97446  104.00028    23.9726 1.5506e+00     35.456     0.7636 0.0000e+00
     34.000     8.4757    30.8735    9.97025  103.96130    23.9668 1.5508e+00     34.267     0.7136 0.0000e+00
     33.000     8.4777    30.8664    9.96008  103.88661    23.9611 1.5509e+00     33.313     0.6546 0.0000e+00
     32.000     8.4789    30.8592    9.94113  103.72374    23.9552 1.5506e+00     32.340     0.6563 0.0000e+00
     31.000     8.4859    30.8564    9.94574  103.79756    23.9530 1.5506e+00     31.150     0.6319 0.0000e+00
     30.000     8.4875    30.8472    9.93087  103.68217    23.9450 1.5506e+00     30.425     0.6270 0.0000e+00
     29.000     8.4888    30.8400    9.92309  103.62071    23.9387 1.5512e+00     29.307     0.6476 0.0000e+00
     28.000     8.4912    30.8377    9.92783  103.67079    23.9367 1.5511e+00     28.284     0.6571 0.0000e+00
     27.000     8.4942    30.8350    9.92915  103.68580    23.9343 1.5513e+00     27.295     0.6467 0.0000e+00
     26.000     8.4971    30.8313    9.92930  103.69525    23.9310 1.5525e+00     26.294     0.6592 0.0000e+00
     25.000     8.5187    30.8285    9.92861  103.70280    23.9284 1.5528e+00     25.308     0.6514 0.0000e+00
     24.000     8.5427    30.8048    9.92635  103.71853    23.9068 1.5539e+00     24.250     0.6589 0.0000e+00
     23.000     8.5619    30.7807    9.92408  103.76807    23.8844 1.5557e+00     23.241     0.6275 0.0000e+00
     22.000     8.5912    30.7526    9.92089  103.89461    23.8593 1.5581e+00     22.131     0.6293 0.0000e+00
     21.000     8.5955    30.7194    9.97626  104.68707    23.8294 1.5626e+00     21.125     0.6244 0.0000e+00
     20.000     8.5957    30.7095    9.99985  105.06772    23.8208 1.5688e+00     20.165     0.6581 0.0000e+00
     19.000     8.5990    30.7053   10.00864  105.24932    23.8175 1.5774e+00     18.931     0.7024 0.0000e+00
     18.000     8.6065    30.7024   10.02764  105.45523    23.8149 1.5916e+00     18.151     0.6295 0.0000e+00
     17.000     8.6186    30.6925   10.05516  105.76114    23.8059 1.6126e+00     17.108     0.6383 0.0000e+00
     16.000     8.6471    30.6790   10.05719  105.78963    23.7936 1.6466e+00     16.054     0.6377 0.0000e+00
     15.000     8.6753    30.6657   10.08558  106.09345    23.7801 1.6944e+00     15.169     0.6512 0.0000e+00
     14.000     8.7620    30.6520   10.14389  106.71224    23.7645 1.7703e+00     14.077     0.6895 0.0000e+00
     13.000     8.8637    30.5958   10.20463  107.36125    23.7100 1.9007e+00     13.131     0.7336 0.0000e+00
     12.000     8.9390    30.5099   10.32839  108.69890    23.6271 2.0896e+00     12.084     0.7959 0.0000e+00
     11.000     8.9774    30.4431   10.41064  109.60871    23.5624 2.3830e+00     11.118     0.8047 0.0000e+00
     10.000     8.9905    30.4155   10.49749  110.54615    23.5348 2.8144e+00     10.117     0.8039 0.0000e+00
      9.000     8.9992    30.4044   10.45316  110.07049    23.5235 3.4763e+00      9.085     0.7647 0.0000e+00
      8.000     9.0038    30.4007   10.74190  107.20595    23.5194 4.5115e+00      8.183     0.7686 0.0000e+00
      7.000     9.0063    30.3975   11.75613  105.30988    23.5160 6.2115e+00      7.090     0.7735 0.0000e+00
      6.000     9.0093    30.3952 -9.990e-29 -9.990e-29    23.5139 8.8014e+00      6.226     0.7561 0.0000e+00
      5.000     9.0155    30.3929 -9.990e-29 -9.990e-29    23.5115 1.2704e+01      5.227     0.8056 0.0000e+00
      4.000     9.0337    30.3815 -9.990e-29 -9.990e-29    23.5018 1.9856e+01      4.300     0.8061 0.0000e+00
      3.000     9.0693    30.3524 -9.990e-29 -9.990e-29    23.4766 3.2421e+01      3.413     0.7688 0.0000e+00
      2.000     9.1024    30.3039 -9.990e-29 -9.990e-29    23.4340 5.2828e+01      2.610     0.7572 0.0000e+00
      1.000     9.1077    30.2392 -9.990e-29 -9.990e-29    23.3782 1.5255e+02      1.927     0.7509 0.0000e+00
