* Sea-Bird SBE19plus Data File:
* FileName = C:\data\otf\2007\ctd-07135.hex
* Software Version 1.55
* Temperature SN =  5061
* Conductivity SN =  5061
* System UpLoad Time = Aug 15 2007 17:29:32
* ds
* SeacatPlus V 1.6a  SERIAL NO. 5061    15 Aug 2007  15:31:53
* vbatt = 10.9, vlith =  8.7, ioper =  61.6 ma, ipump =  57.5 ma, 
* iext01 =  95.2 ma
* iext23 =  58.1 ma
* 
* status = not logging
* number of scans to average = 1
* samples = 153039, free = 288466, casts = 154
* mode = profile, minimum cond freq = 3000, pump delay = 60 sec
* autorun = no, ignore magnetic switch = no
* battery type = alkaline, battery cutoff =  7.3 volts
* pressure sensor = strain gauge, range = 870.0
* SBE 38 = no, Gas Tension Device = no
* Ext Volt 0 = yes, Ext Volt 1 = yes, Ext Volt 2 = yes, Ext Volt 3 = yes
* echo commands = yes
* output format = raw HEX
* S>
* 
* SeacatPlus V 1.6a  SERIAL NO. 5061    15 Aug 2007  15:32:18
* temperature:  05-oct-06
*     TA0 = 1.254184e-03
*     TA1 = 2.596730e-04
*     TA2 = 5.165612e-07
*     TA3 = 1.318931e-07
*     TOFFSET = 0.000000e+00
* conductivity:  05-oct-06
*     G = -9.978144e-01
*     H = 1.555200e-01
*     I = -4.839108e-04
*     J = 6.121100e-05
*     CF0 = 2.539936e+03
*     CPCOR = -9.570000e-08
*     CTCOR = 3.250000e-06
*     CSLOPE = 1.000000e+00
* pressure S/N = 2362539, range = 870 psia:  24-aug-06
*     PA0 = 2.171091e-01
*     PA1 = 2.647085e-03
*     PA2 = 1.419397e-11
*     PTCA0 = 5.242437e+05
*     PTCA1 = 7.545345e+00
*     PTCA2 = -1.835354e-01
*     PTCB0 = 2.537125e+01
*     PTCB1 = -1.750000e-03
*     PTCB2 = 0.000000e+00
*     PTEMPA0 = -5.753989e+01
*     PTEMPA1 = 5.235813e+01
*     PTEMPA2 = -4.015521e-02
*     POFFSET = 0.000000e+00
* volt 0: offset = -4.682842e-02, slope = 1.249147e+00
* volt 1: offset = -4.695158e-02, slope = 1.248145e+00
* volt 2: offset = -4.685263e-02, slope = 1.248783e+00
* volt 3: offset = -4.690316e-02, slope = 1.249508e+00
*     EXTFREQSF = 1.000002e+00
* dh
* cast 135 27 Jul 2007 07:21:03 samples 132820 to 133668, avg = 1, stop = mag switch
* S> 
# nquan = 10
# nvalues = 101                         
# units = specified
# name 0 = depSM: Depth [salt water, m]
# name 1 = tv290C: Temperature [ITS-90, deg C]
# name 2 = sal00: Salinity [PSU]
# name 3 = sbeox0Mg/L: Oxygen, SBE 43 [mg/l]
# name 4 = sbeox0PS: Oxygen, SBE 43 [% saturation]
# name 5 = sigma-t00: Density [sigma-t, Kg/m^3 ]
# name 6 = par: PAR/Irradiance, Biospherical/Licor
# name 7 = prdM: Pressure, Strain Gauge [db]
# name 8 = flECO-AFL: Fluorescence, Wetlab ECO-AFL/FL [mg/m^3]
# name 9 = flag: flag
# span 0 =      1.000,     53.000       
# span 1 =     8.3888,    11.0434       
# span 2 =    28.5386,    31.6378       
# span 3 =    8.12378,    9.46389       
# span 4 =   87.98304,   99.69689       
# span 5 =    21.7446,    24.5781       
# span 6 = 1.5484e+00, 4.9542e+01       
# span 7 =      1.111,     53.316       
# span 8 =     0.6688,     0.9591       
# span 9 = 0.0000e+00, 0.0000e+00       
# interval = meters: 1                  
# start_time = Jul 27 2007 07:21:03
# bad_flag = -9.990e-29
# sensor 0 = Frequency 0  temperature, 5061, 05-Oct-06
# sensor 1 = Frequency 1  conductivity, 5061, 05-Oct-06, cpcor = -9.5700e-08
# sensor 2 = Pressure Number
# sensor 3 = Extrnl Volt  0  irradiance (PAR), primary, 4751, 08/10/06
# sensor 4 = Extrnl Volt  1  Oxygen, SBE, primary, 1081, 10/24/06
# sensor 5 = Extrnl Volt  2  WET Labs, ECO_AFL
# sensor 6 = Extrnl Volt  3  userpoly 0, 0627, 10/11/06
# datcnv_date = Oct 15 2007 14:49:53, 5.37e
# datcnv_in = I:\bob d\OTF_GEM\2007\ctd-07135.hex I:\Willette\OTF\CTD\5061.con
# datcnv_skipover = 0
# filter_date = Oct 15 2007 15:02:41, 5.37e
# filter_in = I:\Willette\OTF\CTD\2007\CTD Data\ctd-07135.cnv
# filter_low_pass_tc_A = 1.000
# filter_low_pass_tc_B = 0.150
# filter_low_pass_A_vars = prdM
# filter_low_pass_B_vars =
# loopedit_date = Oct 15 2007 15:06:59, 5.37e
# loopedit_in = I:\Willette\OTF\CTD\2007\CTD Data\ctd-07135.cnv
# loopedit_minVelocity = 0.250                                                                                            
# loopedit_surfaceSoak: minDepth = 5.0, maxDepth = 20, useDeckPress = 1                                                   
# loopedit_excl_bad_scans = yes
# alignctd_date = Oct 15 2007 15:14:24, 5.37e
# alignctd_in = I:\Willette\OTF\CTD\2007\CTD Data\ctd-07135.cnv
# alignctd_adv = tv290C 0.500, sbeox0Mg/L 4.000, sbeox0PS 4.000                                                                                                                                                                      
# binavg_date = Oct 15 2007 15:18:52, 5.37e
# binavg_in = I:\Willette\OTF\CTD\2007\CTD Data\ctd-07135.cnv
# binavg_bintype = meters
# binavg_binsize = 1
# binavg_excl_bad_scans = yes
# binavg_skipover = 0
# binavg_surface_bin = no, min = 0.000, max = 0.000, value = 0.000
# file_type = ascii
*END*
      5.000    10.8321    28.8581    8.17933   88.66849    22.0197 1.0804e+01      5.046     0.9581 0.0000e+00
      6.000    10.7702    28.9681    8.13802   88.20348    22.1172 8.6049e+00      5.976     0.9009 0.0000e+00
      7.000    10.7415    29.0356    8.12378   87.98304    22.1774 6.7482e+00      6.976     0.8861 0.0000e+00
      8.000    10.7311    29.0681    8.22866   89.09715    22.2056 5.0789e+00      8.133     0.8907 0.0000e+00
      9.000    10.6826    29.0979    8.32224   90.10014    22.2326 4.0757e+00      9.143     0.8795 0.0000e+00
     10.000    10.6605    29.1540    8.44030   91.37099    22.2835 3.3771e+00     10.110     0.8623 0.0000e+00
     11.000    10.6471    29.1713    8.54274   92.34407    22.2989 2.9028e+00     11.147     0.8510 0.0000e+00
     12.000    10.6407    29.1886    8.58717   92.61294    22.3143 2.5370e+00     12.127     0.8437 0.0000e+00
     13.000    10.6214    29.2131    8.57111   92.33926    22.3345 2.2688e+00     13.150     0.8381 0.0000e+00
     14.000    10.5255    29.3328    8.67266   93.32559    22.4356 2.0771e+00     14.120     0.8246 0.0000e+00
     15.000    10.3500    29.5687    8.67772   93.36085    22.6472 1.9351e+00     15.170     0.7757 0.0000e+00
     16.000    10.2794    29.6711    8.56145   91.92847    22.7456 1.8508e+00     16.260     0.7451 0.0000e+00
     17.000    10.2219    29.7144    8.62965   92.55971    22.7851 1.7893e+00     16.988     0.7299 0.0000e+00
     18.000    10.1694    29.8348    8.65307   92.78920    22.8924 1.7260e+00     18.175     0.7168 0.0000e+00
     19.000    10.0620    29.8704    8.64792   92.57587    22.9292 1.6864e+00     19.303     0.7148 0.0000e+00
     20.000     9.9826    30.0101    8.71696   93.21440    23.0560 1.6532e+00     20.055     0.6958 0.0000e+00
     21.000     9.9319    30.1021    8.67898   92.30686    23.1377 1.6259e+00     21.459     0.6948 0.0000e+00
     22.000     9.8505    30.1446    8.76921   93.09921    23.1776 1.6113e+00     22.119     0.6858 0.0000e+00
     23.000     9.7207    30.3163    8.74518   92.77772    23.3345 1.5964e+00     23.242     0.6737 0.0000e+00
     24.000     9.4558    30.4702    8.65859   91.52707    23.4795 1.5871e+00     24.274     0.6751 0.0000e+00
     25.000     9.3226    30.7365    8.78364   92.73500    23.7238 1.5784e+00     25.144     0.6726 0.0000e+00
     26.000     9.1897    30.8537    8.73602   92.00846    23.8302 1.5710e+00     26.642     0.6786 0.0000e+00
     27.000     9.0301    30.9699    8.74117   91.87158    23.9460 1.5671e+00     27.277     0.6688 0.0000e+00
     28.000     8.9435    31.1249    8.85140   92.83980    24.0862 1.5634e+00     28.106     0.6960 0.0000e+00
     29.000     8.8582    31.2607    9.05627   94.91576    24.2098 1.5603e+00     29.502     0.6982 0.0000e+00
     30.000     8.7325    31.2778    9.13008   95.70469    24.2326 1.5584e+00     30.299     0.6851 0.0000e+00
     31.000     8.5927    31.4111    9.18305   96.23887    24.3598 1.5560e+00     31.135     0.7159 0.0000e+00
     32.000     8.5236    31.5264    9.25242   96.88889    24.4717 1.5544e+00     32.454     0.7263 0.0000e+00
     33.000     8.5392    31.5054    9.28041   97.09930    24.4525 1.5533e+00     33.389     0.7349 0.0000e+00
     34.000     8.5233    31.5157    9.30025   97.29619    24.4621 1.5524e+00     34.290     0.7331 0.0000e+00
     35.000     8.5088    31.5192    9.31887   97.48729    24.4656 1.5520e+00     35.346     0.7603 0.0000e+00
     36.000     8.4335    31.5738    9.32924   97.57701    24.5164 1.5517e+00     36.359     0.7793 0.0000e+00
     37.000     8.4235    31.6082    9.33940   97.67525    24.5494 1.5510e+00     37.320     0.7994 0.0000e+00
     38.000     8.4196    31.6138    9.35396   97.83756    24.5546 1.5509e+00     38.233     0.8028 0.0000e+00
     39.000     8.4086    31.6193    9.37064   97.99741    24.5600 1.5506e+00     39.462     0.8165 0.0000e+00
     40.000     8.4029    31.6277    9.38663   98.15235    24.5681 1.5502e+00     40.500     0.8312 0.0000e+00
     41.000     8.4087    31.6252    9.39380   98.22466    24.5658 1.5501e+00     41.213     0.8366 0.0000e+00
     42.000     8.4011    31.6254    9.40052   98.29032    24.5659 1.5504e+00     42.490     0.8284 0.0000e+00
     43.000     8.3945    31.6327    9.40836   98.37200    24.5731 1.5503e+00     43.323     0.8560 0.0000e+00
     44.000     8.3910    31.6366    9.41563   98.44830    24.5767 1.5503e+00     44.357     0.8438 0.0000e+00
     45.000     8.3891    31.6378    9.42112   98.50575    24.5781 1.5502e+00     45.488     0.8464 0.0000e+00
     46.000     8.3891    31.6378    9.42920   98.58938    24.5781 1.5502e+00     46.373     0.8427 0.0000e+00
     47.000     8.3894    31.6376    9.43508   98.65029    24.5779 1.5500e+00     47.437     0.8694 0.0000e+00
     48.000     8.3894    31.6371    9.43753   98.67590    24.5775 1.5500e+00     48.465     0.8688 0.0000e+00
     49.000     8.3889    31.6372    9.43817   98.68428    24.5777 1.5501e+00     49.397     0.8549 0.0000e+00
     50.000     8.3888    31.6370    9.44088   98.71113    24.5775 1.5498e+00     50.375     0.8801 0.0000e+00
     51.000     8.3893    31.6368    9.43899   98.69229    24.5773 1.5499e+00     51.465     0.8720 0.0000e+00
     52.000     8.3894    31.6364    9.44363   98.74718    24.5770 1.5496e+00     52.467     0.8439 0.0000e+00
     53.000     8.3905    31.6355    9.45304   98.83915    24.5763 1.5496e+00     53.316     0.8283 0.0000e+00
     52.000     8.3908    31.6360    9.45316   98.84535    24.5765 1.5492e+00     52.292     0.8966 0.0000e+00
     51.000     8.3917    31.6359    9.45568   98.87317    24.5763 1.5491e+00     51.409     0.8939 0.0000e+00
     50.000     8.3919    31.6350    9.45431   98.85888    24.5755 1.5489e+00     50.549     0.9046 0.0000e+00
     49.000     8.3930    31.6344    9.46006   98.91492    24.5749 1.5489e+00     49.367     0.8847 0.0000e+00
     48.000     8.3932    31.6336    9.46348   98.95122    24.5743 1.5488e+00     48.472     0.8690 0.0000e+00
     47.000     8.3921    31.6335    9.46389   98.95789    24.5742 1.5490e+00     47.521     0.8427 0.0000e+00
     46.000     8.3910    31.6353    9.46223   98.94292    24.5759 1.5488e+00     46.310     0.8438 0.0000e+00
     45.000     8.3923    31.6337    9.46025   98.92619    24.5745 1.5487e+00     45.532     0.8405 0.0000e+00
     44.000     8.3938    31.6321    9.46128   98.94054    24.5730 1.5484e+00     44.349     0.8203 0.0000e+00
     43.000     8.3966    31.6304    9.46067   98.93768    24.5714 1.5484e+00     43.470     0.7892 0.0000e+00
     42.000     8.3983    31.6276    9.45686   98.91047    24.5688 1.5488e+00     42.406     0.8112 0.0000e+00
     41.000     8.4020    31.6239    9.45591   98.91970    24.5655 1.5491e+00     41.361     0.7979 0.0000e+00
     40.000     8.4097    31.6185    9.45001   98.87056    24.5604 1.5489e+00     40.439     0.7902 0.0000e+00
     39.000     8.4213    31.6064    9.44633   98.84516    24.5491 1.5487e+00     39.332     0.8113 0.0000e+00
     38.000     8.4301    31.5996    9.45195   98.91695    24.5428 1.5489e+00     38.443     0.7854 0.0000e+00
     37.000     8.4408    31.5887    9.45741   98.96757    24.5325 1.5494e+00     37.249     0.7733 0.0000e+00
     36.000     8.4382    31.5873    9.45907   99.05876    24.5311 1.5496e+00     36.396     0.7692 0.0000e+00
     35.000     8.4561    31.5803    9.45913   99.13998    24.5248 1.5501e+00     35.281     0.8099 0.0000e+00
     34.000     8.5087    31.5281    9.45406   99.13709    24.4761 1.5506e+00     34.344     0.7894 0.0000e+00
     33.000     8.5660    31.4703    9.44725   99.11855    24.4221 1.5516e+00     33.337     0.7635 0.0000e+00
     32.000     8.5707    31.4675    9.44622   99.27451    24.4194 1.5523e+00     32.297     0.7625 0.0000e+00
     31.000     8.6742    31.3686    9.43503   99.27340    24.3272 1.5540e+00     31.326     0.7355 0.0000e+00
     30.000     8.7682    31.2785    9.42813   99.36854    24.2432 1.5556e+00     30.281     0.7254 0.0000e+00
     29.000     8.8572    31.1871    9.41461   99.49638    24.1579 1.5583e+00     29.292     0.7129 0.0000e+00
     28.000     9.0498    31.0007    9.39061   99.40490    23.9850 1.5613e+00     28.236     0.6985 0.0000e+00
     27.000     9.1277    30.9122    9.38336   99.45931    23.9018 1.5653e+00     27.263     0.6691 0.0000e+00
     26.000     9.2207    30.8148    9.37591   99.50499    23.8111 1.5702e+00     26.240     0.6772 0.0000e+00
     25.000     9.2986    30.7326    9.35818   99.49737    23.7346 1.5774e+00     25.222     0.6764 0.0000e+00
     24.000     9.4000    30.6334    9.33150   99.42568    23.6432 1.5859e+00     24.236     0.7502 0.0000e+00
     23.000     9.5292    30.4962    9.31135   99.34481    23.5165 1.5969e+00     23.211     0.8185 0.0000e+00
     22.000     9.6376    30.3677    9.29595   99.38996    23.3974 1.6121e+00     22.211     0.8296 0.0000e+00
     21.000     9.6995    30.3154    9.29571   99.54707    23.3485 1.6313e+00     21.114     0.8659 0.0000e+00
     20.000     9.8365    30.1743    9.27085   99.38322    23.2165 1.6563e+00     20.206     0.8613 0.0000e+00
     19.000     9.9159    30.0590    9.25379   99.35901    23.1126 1.6909e+00     19.070     0.8453 0.0000e+00
     18.000     9.9979    29.9721    9.24716   99.40788    23.0328 1.7364e+00     18.182     0.8419 0.0000e+00
     17.000    10.0703    29.8985    9.24390   99.51123    22.9643 1.7894e+00     17.213     0.7980 0.0000e+00
     16.000    10.1695    29.7965    9.22772   99.43480    22.8684 1.8637e+00     16.090     0.8169 0.0000e+00
     15.000    10.2500    29.7130    9.22611   99.64615    22.7897 1.9660e+00     15.133     0.8216 0.0000e+00
     14.000    10.3036    29.6641    9.21765   99.69689    22.7445 2.0986e+00     14.128     0.7848 0.0000e+00
     13.000    10.4724    29.4635    9.19239   99.45626    22.5650 2.2784e+00     13.113     0.8437 0.0000e+00
     12.000    10.5869    29.2551    9.17236   99.25011    22.3787 2.5458e+00     12.111     0.8492 0.0000e+00
     11.000    10.6094    29.2036    9.15275   99.04929    22.3325 2.9242e+00     11.122     0.8619 0.0000e+00
     10.000    10.6227    29.1763    9.13839   98.91183    22.3085 3.4207e+00     10.091     0.9027 0.0000e+00
      9.000    10.6343    29.1546    9.12847   98.84751    22.2898 4.1356e+00      9.022     0.9287 0.0000e+00
      8.000    10.6441    29.1425    9.12302   98.82712    22.2790 5.0911e+00      8.109     0.8855 0.0000e+00
      7.000    10.6760    29.1040    9.12041   98.85813    22.2446 6.4039e+00      7.022     0.9349 0.0000e+00
      6.000    10.7036    29.0649    9.11906   98.91345    22.2098 8.1345e+00      6.099     0.9028 0.0000e+00
      5.000    10.7515    29.0044    9.10178   98.81474    22.1555 1.0562e+01      5.004     0.9117 0.0000e+00
      4.000    10.8118    28.9107    9.09538   98.87207    22.0733 1.3571e+01      4.066     0.9033 0.0000e+00
      3.000    10.8688    28.8307    9.08237   98.78461    22.0025 1.7173e+01      3.048     0.8796 0.0000e+00
      2.000    10.9943    28.6447    9.03735   98.29379    21.8377 2.1252e+01      2.012     0.9158 0.0000e+00
      1.000    11.0434    28.5386    8.96046   96.95019    21.7446 4.9542e+01      1.111     0.9591 0.0000e+00
