* Sea-Bird SBE19plus Data File:
* FileName = C:\data\otf\2007\ctd-07102.hex
* Software Version 1.55
* Temperature SN =  5061
* Conductivity SN =  5061
* System UpLoad Time = Aug 15 2007 16:33:45
* ds
* SeacatPlus V 1.6a  SERIAL NO. 5061    15 Aug 2007  15:31:53
* vbatt = 10.9, vlith =  8.7, ioper =  61.6 ma, ipump =  57.5 ma, 
* iext01 =  95.2 ma
* iext23 =  58.1 ma
* 
* status = not logging
* number of scans to average = 1
* samples = 153039, free = 288466, casts = 154
* mode = profile, minimum cond freq = 3000, pump delay = 60 sec
* autorun = no, ignore magnetic switch = no
* battery type = alkaline, battery cutoff =  7.3 volts
* pressure sensor = strain gauge, range = 870.0
* SBE 38 = no, Gas Tension Device = no
* Ext Volt 0 = yes, Ext Volt 1 = yes, Ext Volt 2 = yes, Ext Volt 3 = yes
* echo commands = yes
* output format = raw HEX
* S>
* 
* SeacatPlus V 1.6a  SERIAL NO. 5061    15 Aug 2007  15:32:18
* temperature:  05-oct-06
*     TA0 = 1.254184e-03
*     TA1 = 2.596730e-04
*     TA2 = 5.165612e-07
*     TA3 = 1.318931e-07
*     TOFFSET = 0.000000e+00
* conductivity:  05-oct-06
*     G = -9.978144e-01
*     H = 1.555200e-01
*     I = -4.839108e-04
*     J = 6.121100e-05
*     CF0 = 2.539936e+03
*     CPCOR = -9.570000e-08
*     CTCOR = 3.250000e-06
*     CSLOPE = 1.000000e+00
* pressure S/N = 2362539, range = 870 psia:  24-aug-06
*     PA0 = 2.171091e-01
*     PA1 = 2.647085e-03
*     PA2 = 1.419397e-11
*     PTCA0 = 5.242437e+05
*     PTCA1 = 7.545345e+00
*     PTCA2 = -1.835354e-01
*     PTCB0 = 2.537125e+01
*     PTCB1 = -1.750000e-03
*     PTCB2 = 0.000000e+00
*     PTEMPA0 = -5.753989e+01
*     PTEMPA1 = 5.235813e+01
*     PTEMPA2 = -4.015521e-02
*     POFFSET = 0.000000e+00
* volt 0: offset = -4.682842e-02, slope = 1.249147e+00
* volt 1: offset = -4.695158e-02, slope = 1.248145e+00
* volt 2: offset = -4.685263e-02, slope = 1.248783e+00
* volt 3: offset = -4.690316e-02, slope = 1.249508e+00
*     EXTFREQSF = 1.000002e+00
* dh
* cast 102 20 Jul 2007 09:21:34 samples 66145 to 66482, avg = 4, stop = mag switch
* S> 
# nquan = 10
# nvalues = 136                         
# units = specified
# name 0 = depSM: Depth [salt water, m]
# name 1 = tv290C: Temperature [ITS-90, deg C]
# name 2 = sal00: Salinity [PSU]
# name 3 = sbeox0Mg/L: Oxygen, SBE 43 [mg/l]
# name 4 = sbeox0PS: Oxygen, SBE 43 [% saturation]
# name 5 = sigma-t00: Density [sigma-t, Kg/m^3 ]
# name 6 = par: PAR/Irradiance, Biospherical/Licor
# name 7 = prdM: Pressure, Strain Gauge [db]
# name 8 = flECO-AFL: Fluorescence, Wetlab ECO-AFL/FL [mg/m^3]
# name 9 = flag: flag
# span 0 =      1.000,     70.000       
# span 1 =     8.6240,     9.5930       
# span 2 =    30.8080,    31.3511       
# span 3 =    8.47799,   11.20330       
# span 4 =   89.44342,  102.11374       
# span 5 =    23.7325,    24.3189       
# span 6 = 1.5485e+00, 2.0005e+02       
# span 7 =      1.850,     69.258       
# span 8 =     0.7765,     1.2570       
# span 9 = 0.0000e+00, 0.0000e+00       
# interval = meters: 1                  
# start_time = Jul 20 2007 09:21:34
# bad_flag = -9.990e-29
# sensor 0 = Frequency 0  temperature, 5061, 05-Oct-06
# sensor 1 = Frequency 1  conductivity, 5061, 05-Oct-06, cpcor = -9.5700e-08
# sensor 2 = Pressure Number
# sensor 3 = Extrnl Volt  0  irradiance (PAR), primary, 4751, 08/10/06
# sensor 4 = Extrnl Volt  1  Oxygen, SBE, primary, 1081, 10/24/06
# sensor 5 = Extrnl Volt  2  WET Labs, ECO_AFL
# sensor 6 = Extrnl Volt  3  userpoly 0, 0627, 10/11/06
# datcnv_date = Oct 15 2007 14:49:47, 5.37e
# datcnv_in = I:\bob d\OTF_GEM\2007\ctd-07102.hex I:\Willette\OTF\CTD\5061.con
# datcnv_skipover = 0
# filter_date = Oct 15 2007 15:02:29, 5.37e
# filter_in = I:\Willette\OTF\CTD\2007\CTD Data\ctd-07102.cnv
# filter_low_pass_tc_A = 1.000
# filter_low_pass_tc_B = 0.150
# filter_low_pass_A_vars = prdM
# filter_low_pass_B_vars =
# loopedit_date = Oct 15 2007 15:06:50, 5.37e
# loopedit_in = I:\Willette\OTF\CTD\2007\CTD Data\ctd-07102.cnv
# loopedit_minVelocity = 0.250                                                                                            
# loopedit_surfaceSoak: minDepth = 5.0, maxDepth = 20, useDeckPress = 1                                                   
# loopedit_excl_bad_scans = yes
# alignctd_date = Oct 15 2007 15:14:17, 5.37e
# alignctd_in = I:\Willette\OTF\CTD\2007\CTD Data\ctd-07102.cnv
# alignctd_adv = tv290C 0.500, sbeox0Mg/L 4.000, sbeox0PS 4.000                                                                                                                                                                      
# binavg_date = Oct 15 2007 15:18:46, 5.37e
# binavg_in = I:\Willette\OTF\CTD\2007\CTD Data\ctd-07102.cnv
# binavg_bintype = meters
# binavg_binsize = 1
# binavg_excl_bad_scans = yes
# binavg_skipover = 0
# binavg_surface_bin = no, min = 0.000, max = 0.000, value = 0.000
# file_type = ascii
*END*
      4.000     9.5901    30.8080    8.47799   89.44342    23.7325 2.0005e+02      4.269     0.8496 0.0000e+00
      5.000     9.4255    30.8572    8.63615   91.05980    23.7859 1.4723e+02      5.027     0.9386 0.0000e+00
      6.000     9.2909    30.8790    8.86029   93.39900    23.8148 1.0984e+02      5.877     1.0408 0.0000e+00
      7.000     9.2415    30.9873    8.87560   93.52148    23.9222 8.4131e+01      6.787     0.9648 0.0000e+00
      8.000     9.1784    31.1131    8.99220   94.70109    24.0452 6.4192e+01      7.951     0.9124 0.0000e+00
      9.000     9.0747    31.1468    9.17668   96.55052    24.0804 5.0021e+01      9.483     0.8945 0.0000e+00
     10.000     8.9401    31.1918    9.38539   98.69767    24.1297 3.9226e+01     11.170     0.8854 0.0000e+00
     11.000     8.8956    31.1241    9.42037   99.05848    24.0864 3.2320e+01     12.024     0.8890 0.0000e+00
     12.000     8.8822    31.2060    9.44587   99.32670    24.1603 2.6560e+01     12.883     0.8646 0.0000e+00
     13.000     8.8656    31.2042    9.46971   99.57588    24.1619 2.2280e+01     13.730     0.8590 0.0000e+00
     14.000     8.8561    31.2192    9.48945   99.78149    24.1771 1.8296e+01     14.563     0.8566 0.0000e+00
     15.000     8.8405    31.2465    9.50717   99.95891    24.2016 1.4918e+01     15.675     0.8598 0.0000e+00
     16.000     8.8269    31.2360    9.52111  100.09800    24.1944 1.2483e+01     16.905     0.8622 0.0000e+00
     17.000     8.8212    31.2401    9.53106  100.20092    24.1998 1.0639e+01     17.631     0.8613 0.0000e+00
     18.000     8.8052    31.2519    9.54258  100.31772    24.2105 8.9398e+00     18.638     0.8577 0.0000e+00
     19.000     8.7846    31.2506    9.55586  100.45778    24.2108 7.6655e+00     19.729     0.8671 0.0000e+00
     20.000     8.7738    31.2544    9.55959  100.49687    24.2156 6.6680e+00     20.549     0.8748 0.0000e+00
     21.000     8.7663    31.2618    9.56288  100.52875    24.2238 5.7817e+00     21.429     0.8692 0.0000e+00
     22.000 -9.990e-29 -9.990e-29 -9.990e-29 -9.990e-29 -9.990e-29 -9.990e-29 -9.990e-29 -9.990e-29 -9.990e-29
     23.000     8.7539    31.2604    9.57080  100.59717    24.2260 4.6156e+00     22.968     0.8673 0.0000e+00
     24.000     8.7470    31.2647    9.58004  100.68314    24.2309 3.8622e+00     24.448     0.8693 0.0000e+00
     25.000     8.7431    31.2682    9.57891  100.67114    24.2346 3.4944e+00     25.193     0.8688 0.0000e+00
     26.000     8.7419    31.2707    9.58679  100.74848    24.2372 3.1488e+00     26.074     0.8632 0.0000e+00
     27.000     8.7411    31.2742    9.59088  100.78586    24.2407 2.8480e+00     27.122     0.8720 0.0000e+00
     28.000     8.7403    31.2753    9.59340  100.80895    24.2419 2.6197e+00     28.089     0.8785 0.0000e+00
     29.000 -9.990e-29 -9.990e-29 -9.990e-29 -9.990e-29 -9.990e-29 -9.990e-29 -9.990e-29 -9.990e-29 -9.990e-29
     30.000     8.7389    31.2761    9.60245  100.90056    24.2427 2.3259e+00     29.529     0.8513 0.0000e+00
     31.000     8.7320    31.2771    9.60809  100.94105    24.2437 2.1169e+00     30.992     0.8397 0.0000e+00
     32.000     8.7306    31.2781    9.61177  100.97210    24.2450 2.0176e+00     32.098     0.8545 0.0000e+00
     33.000     8.7284    31.2804    9.61461  100.99707    24.2473 1.9339e+00     33.155     0.8478 0.0000e+00
     34.000     8.7277    31.2818    9.61859  101.03026    24.2488 1.8583e+00     34.376     0.8504 0.0000e+00
     35.000     8.7278    31.2831    9.62280  101.06260    24.2501 1.8040e+00     35.338     0.8615 0.0000e+00
     36.000     8.7265    31.2836    9.62194  101.04185    24.2505 1.7556e+00     36.264     0.8676 0.0000e+00
     37.000     8.7210    31.2834    9.61889  100.99393    24.2504 1.7148e+00     37.361     0.8662 0.0000e+00
     38.000     8.7162    31.2838    9.62029  100.99990    24.2509 1.6856e+00     38.279     0.8668 0.0000e+00
     39.000 -9.990e-29 -9.990e-29 -9.990e-29 -9.990e-29 -9.990e-29 -9.990e-29 -9.990e-29 -9.990e-29 -9.990e-29
     40.000     8.7112    31.2893    9.62108  101.00674    24.2566 1.6383e+00     40.165     0.8788 0.0000e+00
     41.000     8.7079    31.2908    9.62357  101.03002    24.2582 1.6219e+00     41.181     0.8682 0.0000e+00
     42.000     8.7055    31.2923    9.62628  101.05283    24.2599 1.6073e+00     42.170     0.8588 0.0000e+00
     43.000     8.7040    31.2942    9.62431  101.02575    24.2619 1.5955e+00     43.274     0.8612 0.0000e+00
     44.000     8.6986    31.2959    9.62242  100.99751    24.2635 1.5867e+00     44.251     0.8675 0.0000e+00
     45.000     8.6925    31.2960    9.62186  100.98908    24.2637 1.5795e+00     45.224     0.8756 0.0000e+00
     46.000     8.6887    31.2987    9.62053  100.97394    24.2669 1.5732e+00     46.286     0.8765 0.0000e+00
     47.000     8.6862    31.3030    9.62441  101.01607    24.2714 1.5689e+00     47.387     0.9098 0.0000e+00
     48.000     8.6811    31.3050    9.62848  101.05790    24.2732 1.5651e+00     48.254     1.2570 0.0000e+00
     49.000     8.6727    31.3050    9.63094  101.08376    24.2735 1.5614e+00     49.249     1.2064 0.0000e+00
     50.000     8.6651    31.3096    9.62707  101.04326    24.2780 1.5597e+00     50.232     1.2480 0.0000e+00
     51.000     8.6572    31.3149    9.62652  101.03561    24.2835 1.5582e+00     51.193     1.1931 0.0000e+00
     52.000     8.6569    31.3211    9.62588  101.02869    24.2897 1.5560e+00     52.097     1.1785 0.0000e+00
     53.000     8.6558    31.3265    9.62783  101.04663    24.2949 1.5546e+00     53.208     1.1543 0.0000e+00
     54.000     8.6538    31.3254    9.63366  101.09127    24.2938 1.5530e+00     54.186     1.0968 0.0000e+00
     55.000     8.6484    31.3264    9.62859  101.03931    24.2949 1.5521e+00     55.210     1.1117 0.0000e+00
     56.000     8.6410    31.3307    9.62920  101.04725    24.2992 1.5513e+00     56.401     1.0486 0.0000e+00
     57.000     8.6417    31.3338    9.63300  101.08764    24.3022 1.5505e+00     57.329     1.0852 0.0000e+00
     58.000     8.6423    31.3364    9.63202  101.07049    24.3048 1.5506e+00     58.526     1.0475 0.0000e+00
     59.000     8.6417    31.3364    9.62674  101.02095    24.3046 1.5501e+00     59.480     1.0462 0.0000e+00
     60.000     8.6416    31.3361    9.63078  101.06298    24.3044 1.5501e+00     60.509     1.0525 0.0000e+00
     61.000     8.6404    31.3362    9.62921  101.04539    24.3045 1.5495e+00     61.468     1.0317 0.0000e+00
     62.000     8.6406    31.3365    9.62865  101.03604    24.3049 1.5495e+00     62.597     1.0185 0.0000e+00
     63.000     8.6353    31.3377    9.62720  101.02305    24.3059 1.5493e+00     63.303     1.0125 0.0000e+00
     64.000     8.6293    31.3381    9.63250  101.07480    24.3064 1.5499e+00     64.318     1.0024 0.0000e+00
     65.000     8.6314    31.3443    9.63246  101.07309    24.3125 1.5490e+00     65.021     0.9826 0.0000e+00
     66.000     8.6318    31.3442    9.63244  101.07377    24.3124 1.5492e+00     66.065     0.9799 0.0000e+00
     67.000     8.6301    31.3449    9.62908  101.03609    24.3130 1.5489e+00     67.165     0.9488 0.0000e+00
     68.000     8.6312    31.3451    9.63389  101.08316    24.3131 1.5490e+00     68.169     0.9392 0.0000e+00
     69.000     8.6297    31.3446    9.63164  101.06017    24.3127 1.5486e+00     68.662     0.9621 0.0000e+00
     70.000     8.6291    31.3462    9.62191  100.95844    24.3141 1.5490e+00     69.258     0.8997 0.0000e+00
     69.000     8.6270    31.3481    9.61630  100.90452    24.3160 1.5485e+00     68.870     0.9671 0.0000e+00
     68.000     8.6261    31.3487    9.62233  100.98314    24.3165 1.5486e+00     68.152     1.0085 0.0000e+00
     67.000     8.6240    31.3503    9.62396  101.01157    24.3182 1.5486e+00     66.930     0.9899 0.0000e+00
     66.000     8.6244    31.3511    9.61745  100.95176    24.3189 1.5485e+00     65.685     1.0055 0.0000e+00
     65.000     8.6255    31.3505    9.62085  100.98644    24.3183 1.5487e+00     65.009     0.9848 0.0000e+00
     64.000     8.6258    31.3498    9.62443  101.03248    24.3177 1.5488e+00     64.207     0.9865 0.0000e+00
     63.000     8.6261    31.3489    9.62566  101.05526    24.3168 1.5488e+00     63.431     0.9779 0.0000e+00
     62.000     8.6310    31.3487    9.62621  101.07040    24.3166 1.5492e+00     62.434     0.9851 0.0000e+00
     61.000     8.6339    31.3467    9.62778  101.09338    24.3148 1.5491e+00     61.602     0.9937 0.0000e+00
     60.000     8.6346    31.3412    9.62803  101.10264    24.3095 1.5496e+00     60.497     0.9953 0.0000e+00
     59.000     8.6388    31.3417    9.63012  101.12658    24.3099 1.5496e+00     59.677     0.9775 0.0000e+00
     58.000     8.6410    31.3385    9.62912  101.12233    24.3068 1.5499e+00     58.541     0.9965 0.0000e+00
     57.000     8.6446    31.3370    9.63420  101.17880    24.3054 1.5505e+00     57.671     0.9750 0.0000e+00
     56.000     8.6469    31.3344    9.63689  101.21236    24.3029 1.5505e+00     56.595     0.9628 0.0000e+00
     55.000     8.6467    31.3322    9.63802  101.22640    24.3007 1.5509e+00     55.696     0.9505 0.0000e+00
     54.000     8.6531    31.3323    9.63966  101.25171    24.3008 1.5521e+00     54.627     0.9548 0.0000e+00
     53.000     8.6595    31.3295    9.63484  101.21075    24.2981 1.5533e+00     53.690     0.9870 0.0000e+00
     52.000     8.6655    31.3229    9.63195  101.18709    24.2915 1.5544e+00     52.577     0.9877 0.0000e+00
     51.000     8.6684    31.3190    9.62743  101.14604    24.2876 1.5562e+00     51.525     0.9871 0.0000e+00
     50.000     8.6714    31.3169    9.62563  101.13501    24.2855 1.5580e+00     50.547     0.9739 0.0000e+00
     49.000     8.6735    31.3150    9.62503  101.13420    24.2836 1.5598e+00     49.564     0.9582 0.0000e+00
     48.000     8.6773    31.3130    9.62884  101.17902    24.2817 1.5635e+00     48.525     0.9703 0.0000e+00
     47.000     8.6789    31.3112    9.62889  101.18395    24.2797 1.5667e+00     47.545     0.9523 0.0000e+00
     46.000     8.6838    31.3098    9.63214  101.22288    24.2783 1.5716e+00     46.541     0.9620 0.0000e+00
     45.000     8.6890    31.3067    9.62957  101.20022    24.2753 1.5770e+00     45.567     0.9627 0.0000e+00
     44.000     8.6924    31.3037    9.62960  101.20338    24.2721 1.5837e+00     44.593     0.9509 0.0000e+00
     43.000     8.6961    31.3015    9.62785  101.18496    24.2698 1.5922e+00     43.614     0.9637 0.0000e+00
     42.000     8.7014    31.2993    9.63682  101.28093    24.2676 1.6030e+00     42.651     0.9832 0.0000e+00
     41.000     8.7038    31.2965    9.63301  101.24309    24.2646 1.6165e+00     41.749     0.9749 0.0000e+00
     40.000     8.7090    31.2935    9.62283  101.14206    24.2615 1.6327e+00     40.187     0.9625 0.0000e+00
     39.000     8.7115    31.2920    9.62703  101.19325    24.2599 1.6528e+00     39.328     0.9728 0.0000e+00
     38.000     8.7129    31.2907    9.63037  101.23470    24.2585 1.6777e+00     38.394     0.9751 0.0000e+00
     37.000     8.7136    31.2898    9.63127  101.24410    24.2576 1.7090e+00     37.407     0.9636 0.0000e+00
     36.000     8.7149    31.2893    9.62155  101.13911    24.2570 1.7477e+00     36.415     0.9468 0.0000e+00
     35.000     8.7165    31.2887    9.62871  101.21943    24.2564 1.7961e+00     35.468     0.9585 0.0000e+00
     34.000     8.7192    31.2879    9.62958  101.22891    24.2555 1.8550e+00     34.618     0.9553 0.0000e+00
     33.000     8.7237    31.2856    9.63584  101.29603    24.2532 1.9295e+00     33.726     0.9484 0.0000e+00
     32.000     8.7256    31.2829    9.63425  101.28313    24.2504 2.0341e+00     32.510     0.9404 0.0000e+00
     31.000     8.7301    31.2803    9.63562  101.31913    24.2477 2.1703e+00     31.014     0.9313 0.0000e+00
     30.000     8.7309    31.2798    9.63876  101.35748    24.2471 2.3137e+00     29.960     0.9145 0.0000e+00
     29.000     8.7324    31.2790    9.63388  101.30465    24.2464 2.4860e+00     28.943     0.9400 0.0000e+00
     28.000     8.7367    31.2786    9.63814  101.35054    24.2458 2.6878e+00     28.141     0.9331 0.0000e+00
     27.000     8.7404    31.2755    9.63149  101.28510    24.2427 2.9497e+00     27.155     0.9315 0.0000e+00
     26.000     8.7419    31.2743    9.63590  101.34828    24.2413 3.2562e+00     26.355     0.9341 0.0000e+00
     25.000     8.7427    31.2731    9.63348  101.33415    24.2402 3.6422e+00     25.392     0.9406 0.0000e+00
     24.000     8.7432    31.2728    9.63097  101.32004    24.2398 4.1165e+00     24.367     0.9267 0.0000e+00
     23.000     8.7423    31.2731    9.61761  101.19493    24.2401 4.6809e+00     23.314     0.9113 0.0000e+00
     22.000     8.7480    31.2729    9.62229  101.27368    24.2398 5.3586e+00     22.320     0.8930 0.0000e+00
     21.000     8.7587    31.2679    9.61862  101.26051    24.2343 6.1623e+00     21.219     0.8860 0.0000e+00
     20.000     8.7671    31.2625    9.61580  101.27717    24.2286 7.0942e+00     20.125     0.9012 0.0000e+00
     19.000     8.7806    31.2590    9.62235  101.38695    24.2249 8.2154e+00     19.013     0.9139 0.0000e+00
     18.000     8.7942    31.2499    9.62704  101.48358    24.2154 9.5560e+00     18.039     0.8993 0.0000e+00
     17.000     8.8055    31.2420    9.62127  101.47935    24.2073 1.1169e+01     16.857     0.8886 0.0000e+00
     16.000     8.8229    31.2366    9.61588  101.53443    24.2016 1.3130e+01     15.809     0.8994 0.0000e+00
     15.000     8.8346    31.2257    9.61481  101.64209    24.1906 1.5368e+01     14.834     0.8953 0.0000e+00
     14.000     8.8441    31.2203    9.61274  101.81925    24.1851 1.8234e+01     13.958     0.8918 0.0000e+00
     13.000     8.8573    31.2139    9.61029  102.06148    24.1786 2.1702e+01     12.939     0.9063 0.0000e+00
     12.000     8.8739    31.2063    9.57994  102.04226    24.1707 2.5959e+01     11.966     0.9056 0.0000e+00
     11.000     8.8869    31.1959    9.56313  102.11374    24.1603 3.1016e+01     11.004     0.8982 0.0000e+00
     10.000     8.9034    31.1858    9.53792  101.94312    24.1501 3.7199e+01      9.901     0.9691 0.0000e+00
      9.000     8.9205    31.1798    9.47421  101.22824    24.1438 4.4016e+01      9.103     0.9040 0.0000e+00
      8.000     8.9791    31.1679    9.74485   99.79130    24.1314 5.2656e+01      8.073     0.9868 0.0000e+00
      7.000     9.0477    31.1364   10.51224   99.23236    24.0984 6.2107e+01      7.034     1.0077 0.0000e+00
      6.000     9.1197    31.1128   10.95469   99.23207    24.0734 7.3053e+01      6.200     1.0461 0.0000e+00
      5.000     9.2553    31.0524   11.12284   99.36914    24.0105 8.3643e+01      5.122     1.0755 0.0000e+00
      4.000     9.3864    30.9965   11.13040   99.36178    23.9499 9.4808e+01      4.231     1.0630 0.0000e+00
      3.000     9.5082    30.9493   11.11178   99.33860    23.8968 1.1160e+02      3.443     1.0427 0.0000e+00
      2.000     9.5777    30.8752   11.16692   99.28852    23.8130 1.2505e+02      2.533     0.9153 0.0000e+00
      1.000     9.5930    30.8442   11.20330   99.24972    23.7772 1.6355e+02      1.850     0.7765 0.0000e+00
