* Sea-Bird SBE19plus Data File:
* FileName = C:\data\otf\2007\ctd-07037.hex
* Software Version 1.55
* Temperature SN =  5061
* Conductivity SN =  5061
* System UpLoad Time = Aug 15 2007 16:06:22
* ds
* SeacatPlus V 1.6a  SERIAL NO. 5061    15 Aug 2007  15:31:53
* vbatt = 10.9, vlith =  8.7, ioper =  61.6 ma, ipump =  57.5 ma, 
* iext01 =  95.2 ma
* iext23 =  58.1 ma
* 
* status = not logging
* number of scans to average = 1
* samples = 153039, free = 288466, casts = 154
* mode = profile, minimum cond freq = 3000, pump delay = 60 sec
* autorun = no, ignore magnetic switch = no
* battery type = alkaline, battery cutoff =  7.3 volts
* pressure sensor = strain gauge, range = 870.0
* SBE 38 = no, Gas Tension Device = no
* Ext Volt 0 = yes, Ext Volt 1 = yes, Ext Volt 2 = yes, Ext Volt 3 = yes
* echo commands = yes
* output format = raw HEX
* S>
* 
* SeacatPlus V 1.6a  SERIAL NO. 5061    15 Aug 2007  15:32:18
* temperature:  05-oct-06
*     TA0 = 1.254184e-03
*     TA1 = 2.596730e-04
*     TA2 = 5.165612e-07
*     TA3 = 1.318931e-07
*     TOFFSET = 0.000000e+00
* conductivity:  05-oct-06
*     G = -9.978144e-01
*     H = 1.555200e-01
*     I = -4.839108e-04
*     J = 6.121100e-05
*     CF0 = 2.539936e+03
*     CPCOR = -9.570000e-08
*     CTCOR = 3.250000e-06
*     CSLOPE = 1.000000e+00
* pressure S/N = 2362539, range = 870 psia:  24-aug-06
*     PA0 = 2.171091e-01
*     PA1 = 2.647085e-03
*     PA2 = 1.419397e-11
*     PTCA0 = 5.242437e+05
*     PTCA1 = 7.545345e+00
*     PTCA2 = -1.835354e-01
*     PTCB0 = 2.537125e+01
*     PTCB1 = -1.750000e-03
*     PTCB2 = 0.000000e+00
*     PTEMPA0 = -5.753989e+01
*     PTEMPA1 = 5.235813e+01
*     PTEMPA2 = -4.015521e-02
*     POFFSET = 0.000000e+00
* volt 0: offset = -4.682842e-02, slope = 1.249147e+00
* volt 1: offset = -4.695158e-02, slope = 1.248145e+00
* volt 2: offset = -4.685263e-02, slope = 1.248783e+00
* volt 3: offset = -4.690316e-02, slope = 1.249508e+00
*     EXTFREQSF = 1.000002e+00
* dh
* cast  37 08 Jul 2007 09:21:12 samples 39137 to 39459, avg = 4, stop = mag switch
* S> 
# nquan = 10
# nvalues = 169                         
# units = specified
# name 0 = depSM: Depth [salt water, m]
# name 1 = tv290C: Temperature [ITS-90, deg C]
# name 2 = sal00: Salinity [PSU]
# name 3 = sbeox0Mg/L: Oxygen, SBE 43 [mg/l]
# name 4 = sbeox0PS: Oxygen, SBE 43 [% saturation]
# name 5 = sigma-t00: Density [sigma-t, Kg/m^3 ]
# name 6 = par: PAR/Irradiance, Biospherical/Licor
# name 7 = prdM: Pressure, Strain Gauge [db]
# name 8 = flECO-AFL: Fluorescence, Wetlab ECO-AFL/FL [mg/m^3]
# name 9 = flag: flag
# span 0 =      1.000,     87.000       
# span 1 =     8.0392,     9.1387       
# span 2 =    30.6381,    31.4113       
# span 3 =    8.53989,    9.93239       
# span 4 =   89.24419,  104.82311       
# span 5 =    23.6941,    24.4510       
# span 6 = 1.5483e+00, 1.7111e+02       
# span 7 =      2.234,     85.923       
# span 8 =     0.4189,     0.8056       
# span 9 = 0.0000e+00, 0.0000e+00       
# interval = meters: 1                  
# start_time = Jul 08 2007 09:21:12
# bad_flag = -9.990e-29
# sensor 0 = Frequency 0  temperature, 5061, 05-Oct-06
# sensor 1 = Frequency 1  conductivity, 5061, 05-Oct-06, cpcor = -9.5700e-08
# sensor 2 = Pressure Number
# sensor 3 = Extrnl Volt  0  irradiance (PAR), primary, 4751, 08/10/06
# sensor 4 = Extrnl Volt  1  Oxygen, SBE, primary, 1081, 10/24/06
# sensor 5 = Extrnl Volt  2  WET Labs, ECO_AFL
# sensor 6 = Extrnl Volt  3  userpoly 0, 0627, 10/11/06
# datcnv_date = Oct 15 2007 14:49:44, 5.37e
# datcnv_in = I:\bob d\OTF_GEM\2007\ctd-07037.hex I:\Willette\OTF\CTD\5061.con
# datcnv_skipover = 0
# filter_date = Oct 15 2007 15:02:23, 5.37e
# filter_in = I:\Willette\OTF\CTD\2007\CTD Data\ctd-07037.cnv
# filter_low_pass_tc_A = 1.000
# filter_low_pass_tc_B = 0.150
# filter_low_pass_A_vars = prdM
# filter_low_pass_B_vars =
# loopedit_date = Oct 15 2007 15:06:46, 5.37e
# loopedit_in = I:\Willette\OTF\CTD\2007\CTD Data\ctd-07037.cnv
# loopedit_minVelocity = 0.250                                                                                            
# loopedit_surfaceSoak: minDepth = 5.0, maxDepth = 20, useDeckPress = 1                                                   
# loopedit_excl_bad_scans = yes
# alignctd_date = Oct 15 2007 15:14:14, 5.37e
# alignctd_in = I:\Willette\OTF\CTD\2007\CTD Data\ctd-07037.cnv
# alignctd_adv = tv290C 0.500, sbeox0Mg/L 4.000, sbeox0PS 4.000                                                                                                                                                                      
# binavg_date = Oct 15 2007 15:18:43, 5.37e
# binavg_in = I:\Willette\OTF\CTD\2007\CTD Data\ctd-07037.cnv
# binavg_bintype = meters
# binavg_binsize = 1
# binavg_excl_bad_scans = yes
# binavg_skipover = 0
# binavg_surface_bin = no, min = 0.000, max = 0.000, value = 0.000
# file_type = ascii
*END*
      5.000     9.0259    30.6844    8.53989   89.24419    23.7296 4.7482e+01      4.630     0.6354 0.0000e+00
      6.000     8.8672    30.7746    9.12362   94.84167    23.8226 3.7102e+01      6.844     0.5615 0.0000e+00
      7.000     8.9100    30.8129    9.39747   97.80524    23.8566 2.9564e+01      7.390     0.5650 0.0000e+00
      8.000     8.7710    30.8007    9.46794   98.50130    23.8453 2.4008e+01      8.193     0.5848 0.0000e+00
      9.000     8.6453    30.9278    9.54824   99.30562    23.9620 1.8964e+01      9.071     0.5773 0.0000e+00
     10.000     8.4101    31.0136    9.60329   99.77802    24.0399 1.5046e+01     10.219     0.6001 0.0000e+00
     11.000     8.4993    31.2001    9.64041  100.18055    24.2141 1.2766e+01     11.013     0.6155 0.0000e+00
     12.000     8.4371    31.1634    9.67711  100.55659    24.1850 1.0798e+01     12.094     0.5992 0.0000e+00
     13.000     8.3156    31.3029    9.70758  100.84629    24.3151 9.1402e+00     13.264     0.5896 0.0000e+00
     14.000     8.2813    31.3135    9.73382  101.07510    24.3376 7.9869e+00     14.388     0.5925 0.0000e+00
     15.000     8.2533    31.3206    9.75451  101.27557    24.3460 6.8985e+00     15.835     0.5352 0.0000e+00
     16.000     8.2546    31.3227    9.77485  101.49195    24.3489 6.1370e+00     16.379     0.5831 0.0000e+00
     17.000     8.2091    31.3322    9.78457  101.59682    24.3588 5.3176e+00     17.705     0.5948 0.0000e+00
     18.000     8.2040    31.3308    9.80058  101.76067    24.3602 4.7971e+00     18.377     0.6465 0.0000e+00
     19.000     8.2022    31.3464    9.80549  101.80974    24.3767 4.2341e+00     19.283     0.5778 0.0000e+00
     20.000     8.2008    31.3499    9.82722  102.03654    24.3799 3.7966e+00     20.575     0.4867 0.0000e+00
     21.000     8.1981    31.3486    9.83306  102.09509    24.3785 3.4761e+00     21.093     0.4745 0.0000e+00
     22.000     8.1912    31.3473    9.79917  101.74031    24.3779 3.1541e+00     22.099     0.5267 0.0000e+00
     23.000     8.1850    31.3462    9.83701  102.13216    24.3779 2.9220e+00     23.010     0.5150 0.0000e+00
     24.000     8.1699    31.3478    9.81039  101.86933    24.3797 2.7000e+00     23.809     0.5294 0.0000e+00
     25.000     8.1635    31.3405    9.84853  102.25982    24.3762 2.5128e+00     25.065     0.5438 0.0000e+00
     26.000     8.1647    31.3456    9.83349  102.08566    24.3815 2.3636e+00     26.130     0.5887 0.0000e+00
     27.000     8.1668    31.3467    9.85127  102.26233    24.3825 2.2403e+00     27.486     0.5414 0.0000e+00
     28.000     8.1655    31.3473    9.84055  102.14591    24.3827 2.1303e+00     28.481     0.5302 0.0000e+00
     29.000     8.1649    31.3458    9.85519  102.28937    24.3816 2.0440e+00     29.553     0.4953 0.0000e+00
     30.000     8.1649    31.3470    9.85335  102.26138    24.3827 1.9678e+00     30.509     0.5132 0.0000e+00
     31.000     8.1640    31.3469    9.85001  102.22661    24.3826 1.9042e+00     31.453     0.5032 0.0000e+00
     32.000     8.1633    31.3461    9.86092  102.34136    24.3820 1.8504e+00     32.236     0.5387 0.0000e+00
     33.000     8.1653    31.3456    9.84546  102.20131    24.3818 1.8021e+00     33.387     0.4900 0.0000e+00
     34.000     8.1685    31.3477    9.85609  102.31118    24.3836 1.7660e+00     34.147     0.5007 0.0000e+00
     35.000     8.1630    31.3474    9.86578  102.40253    24.3826 1.7297e+00     35.382     0.4963 0.0000e+00
     36.000     8.1589    31.3455    9.86585  102.38437    24.3814 1.7037e+00     36.341     0.5006 0.0000e+00
     37.000     8.1561    31.3459    9.86706  102.38670    24.3826 1.6796e+00     37.331     0.6324 0.0000e+00
     38.000     8.1538    31.3467    9.86690  102.37118    24.3836 1.6604e+00     38.460     0.5110 0.0000e+00
     39.000     8.1526    31.3466    9.87099  102.39158    24.3838 1.6445e+00     39.338     0.5030 0.0000e+00
     40.000     8.1480    31.3476    9.86590  102.30795    24.3849 1.6292e+00     40.310     0.5092 0.0000e+00
     41.000     8.1430    31.3440    9.86647  102.29935    24.3823 1.6165e+00     41.698     0.4550 0.0000e+00
     42.000     8.1452    31.3472    9.86650  102.29920    24.3856 1.6070e+00     42.360     0.4890 0.0000e+00
     43.000     8.1525    31.3482    9.86185  102.25010    24.3865 1.5977e+00     43.518     0.4858 0.0000e+00
     44.000     8.1550    31.3499    9.86466  102.27459    24.3878 1.5912e+00     44.282     0.4812 0.0000e+00
     45.000     8.1539    31.3481    9.86756  102.29170    24.3851 1.5844e+00     45.489     0.4678 0.0000e+00
     46.000     8.1496    31.3462    9.87160  102.32679    24.3835 1.5792e+00     46.327     0.4758 0.0000e+00
     47.000     8.1376    31.3463    9.87615  102.36874    24.3840 1.5748e+00     47.486     0.4841 0.0000e+00
     48.000     8.1373    31.3454    9.87483  102.35322    24.3844 1.5709e+00     48.377     0.4875 0.0000e+00
     49.000     8.1277    31.3485    9.87377  102.34323    24.3877 1.5677e+00     49.354     0.4706 0.0000e+00
     50.000     8.1161    31.3468    9.87693  102.37523    24.3866 1.5643e+00     50.409     0.4588 0.0000e+00
     51.000     8.0952    31.3534    9.87542  102.35513    24.3944 1.5618e+00     51.475     0.4673 0.0000e+00
     52.000     8.0995    31.3585    9.88291  102.42340    24.3997 1.5602e+00     52.243     0.4688 0.0000e+00
     53.000     8.0988    31.3617    9.88589  102.45326    24.4040 1.5587e+00     53.689     0.4240 0.0000e+00
     54.000     8.0973    31.3641    9.88625  102.44476    24.4056 1.5573e+00     54.357     0.4455 0.0000e+00
     55.000     8.0931    31.3624    9.89167  102.48268    24.4043 1.5562e+00     55.553     0.4397 0.0000e+00
     56.000     8.0858    31.3635    9.89160  102.48230    24.4057 1.5551e+00     56.472     0.4562 0.0000e+00
     57.000     8.0842    31.3666    9.89717  102.53756    24.4092 1.5542e+00     57.614     0.4891 0.0000e+00
     58.000     8.0836    31.3680    9.89806  102.54589    24.4106 1.5531e+00     58.454     0.4712 0.0000e+00
     59.000     8.0838    31.3690    9.89361  102.49750    24.4116 1.5525e+00     59.696     0.5149 0.0000e+00
     60.000     8.0822    31.3695    9.89174  102.47763    24.4119 1.5521e+00     60.531     0.4765 0.0000e+00
     61.000     8.0778    31.3701    9.89525  102.50975    24.4125 1.5517e+00     61.596     0.4665 0.0000e+00
     62.000     8.0760    31.3721    9.88935  102.43785    24.4147 1.5514e+00     62.618     0.5042 0.0000e+00
     63.000     8.0709    31.3744    9.88905  102.42905    24.4168 1.5509e+00     63.615     0.4907 0.0000e+00
     64.000     8.0613    31.3754    9.89940  102.53681    24.4179 1.5507e+00     64.774     0.5131 0.0000e+00
     65.000     8.0590    31.3853    9.90250  102.56981    24.4271 1.5506e+00     65.725     0.5024 0.0000e+00
     66.000     8.0565    31.3893    9.90322  102.57389    24.4309 1.5502e+00     67.103     0.5427 0.0000e+00
     67.000     8.0570    31.3920    9.90239  102.56371    24.4334 1.5500e+00     67.671     0.5332 0.0000e+00
     68.000     8.0556    31.3926    9.90023  102.54125    24.4339 1.5497e+00     68.922     0.5010 0.0000e+00
     69.000     8.0547    31.3930    9.90350  102.57454    24.4343 1.5495e+00     69.877     0.5172 0.0000e+00
     70.000     8.0547    31.3939    9.90588  102.59872    24.4352 1.5492e+00     70.725     0.5316 0.0000e+00
     71.000     8.0515    31.3946    9.90046  102.54265    24.4358 1.5494e+00     71.997     0.5208 0.0000e+00
     72.000 -9.990e-29 -9.990e-29 -9.990e-29 -9.990e-29 -9.990e-29 -9.990e-29 -9.990e-29 -9.990e-29 -9.990e-29
     73.000     8.0431    31.3985    9.89845  102.52320    24.4393 1.5489e+00     73.669     0.5278 0.0000e+00
     74.000     8.0418    31.4046    9.89053  102.44212    24.4449 1.5491e+00     74.795     0.5709 0.0000e+00
     75.000     8.0427    31.4074    9.88364  102.37217    24.4476 1.5488e+00     75.695     0.5780 0.0000e+00
     76.000     8.0443    31.4078    9.89049  102.44126    24.4480 1.5488e+00     76.766     0.5961 0.0000e+00
     77.000     8.0419    31.4063    9.89386  102.47843    24.4466 1.5492e+00     77.661     0.6067 0.0000e+00
     78.000     8.0407    31.4053    9.89167  102.45594    24.4456 1.5486e+00     78.583     0.5959 0.0000e+00
     79.000     8.0401    31.4080    9.89220  102.46023    24.4481 1.5489e+00     79.464     0.6325 0.0000e+00
     80.000     8.0399    31.4098    9.89581  102.49726    24.4497 1.5491e+00     80.555     0.5828 0.0000e+00
     81.000     8.0397    31.4099    9.89590  102.49708    24.4499 1.5488e+00     81.291     0.5927 0.0000e+00
     82.000     8.0393    31.4104    9.88984  102.43493    24.4503 1.5487e+00     82.266     0.5871 0.0000e+00
     83.000     8.0393    31.4108    9.89216  102.45788    24.4507 1.5488e+00     83.285     0.6226 0.0000e+00
     84.000     8.0392    31.4111    9.89736  102.51126    24.4508 1.5488e+00     83.752     0.5948 0.0000e+00
     85.000     8.0400    31.4113    9.89223  102.45830    24.4510 1.5487e+00     84.590     0.6439 0.0000e+00
     86.000     8.0403    31.4113    9.88963  102.43168    24.4510 1.5488e+00     85.241     0.6370 0.0000e+00
     87.000     8.0409    31.4108    9.88812  102.41640    24.4505 1.5492e+00     85.923     0.7051 0.0000e+00
     86.000     8.0405    31.4106    9.89275  102.46642    24.4502 1.5485e+00     85.722     0.6864 0.0000e+00
     85.000     8.0400    31.4110    9.89055  102.44204    24.4506 1.5486e+00     85.119     0.7054 0.0000e+00
     84.000     8.0398    31.4111    9.88024  102.33580    24.4508 1.5486e+00     84.196     0.5970 0.0000e+00
     83.000     8.0397    31.4111    9.87957  102.32741    24.4508 1.5485e+00     83.455     0.6327 0.0000e+00
     82.000     8.0400    31.4110    9.87293  102.25866    24.4508 1.5487e+00     82.542     0.6381 0.0000e+00
     81.000     8.0399    31.4112    9.87409  102.27116    24.4509 1.5485e+00     81.688     0.6796 0.0000e+00
     80.000     8.0407    31.4104    9.87500  102.28186    24.4503 1.5486e+00     80.655     0.6271 0.0000e+00
     79.000     8.0414    31.4103    9.87452  102.27737    24.4502 1.5487e+00     79.632     0.6101 0.0000e+00
     78.000     8.0412    31.4089    9.88752  102.41899    24.4489 1.5485e+00     78.653     0.6479 0.0000e+00
     77.000     8.0406    31.4091    9.88842  102.43060    24.4491 1.5488e+00     77.862     0.6180 0.0000e+00
     76.000     8.0410    31.4088    9.88955  102.43759    24.4489 1.5486e+00     76.647     0.6622 0.0000e+00
     75.000     8.0401    31.4089    9.88610  102.40082    24.4489 1.5485e+00     75.858     0.5424 0.0000e+00
     74.000     8.0404    31.4092    9.88279  102.37166    24.4493 1.5489e+00     74.822     0.5959 0.0000e+00
     73.000     8.0400    31.4098    9.87384  102.28593    24.4499 1.5489e+00     73.799     0.8056 0.0000e+00
     72.000     8.0412    31.4089    9.87534  102.30535    24.4490 1.5483e+00     72.930     0.6288 0.0000e+00
     71.000     8.0416    31.4084    9.88404  102.39948    24.4485 1.5485e+00     72.148     0.6464 0.0000e+00
     70.000     8.0457    31.4075    9.87777  102.33618    24.4479 1.5486e+00     71.212     0.6397 0.0000e+00
     69.000     8.0468    31.4029    9.87420  102.29880    24.4436 1.5487e+00     70.301     0.6133 0.0000e+00
     68.000     8.0499    31.4018    9.88094  102.38299    24.4425 1.5486e+00     68.059     0.5483 0.0000e+00
     67.000     8.0547    31.3975    9.88523  102.44745    24.4386 1.5488e+00     67.358     0.6215 0.0000e+00
     66.000     8.0569    31.3926    9.88245  102.43479    24.4340 1.5487e+00     66.229     0.5676 0.0000e+00
     65.000     8.0566    31.3920    9.88124  102.42611    24.4335 1.5490e+00     65.556     0.5941 0.0000e+00
     64.000     8.0568    31.3919    9.87716  102.38600    24.4334 1.5494e+00     64.302     0.5698 0.0000e+00
     63.000     8.0573    31.3918    9.87233  102.34251    24.4333 1.5496e+00     63.612     0.5485 0.0000e+00
     62.000     8.0592    31.3905    9.87512  102.37433    24.4321 1.5500e+00     62.426     0.5337 0.0000e+00
     61.000     8.0636    31.3891    9.87812  102.40656    24.4309 1.5504e+00     61.662     0.5692 0.0000e+00
     60.000     8.0704    31.3841    9.86305  102.25428    24.4265 1.5507e+00     60.515     0.5452 0.0000e+00
     59.000     8.0808    31.3754    9.86313  102.25690    24.4181 1.5514e+00     59.398     0.4189 0.0000e+00
     58.000     8.0856    31.3720    9.87120  102.33759    24.4148 1.5516e+00     58.645     0.5021 0.0000e+00
     57.000     8.0874    31.3677    9.86633  102.28647    24.4106 1.5525e+00     57.821     0.5001 0.0000e+00
     56.000     8.0886    31.3637    9.84844  102.15586    24.4067 1.5532e+00     56.395     0.4949 0.0000e+00
     55.000     8.0922    31.3643    9.85521  102.24018    24.4071 1.5541e+00     55.591     0.4963 0.0000e+00
     54.000     8.0932    31.3627    9.86578  102.36054    24.4054 1.5552e+00     54.443     0.4987 0.0000e+00
     53.000     8.0949    31.3628    9.85764  102.29306    24.4053 1.5567e+00     53.210     0.4977 0.0000e+00
     52.000     8.0957    31.3623    9.85718  102.30117    24.4047 1.5583e+00     52.118     0.4857 0.0000e+00
     51.000     8.0945    31.3616    9.86603  102.39663    24.4041 1.5599e+00     51.065     0.4835 0.0000e+00
     50.000     8.0940    31.3622    9.87063  102.44322    24.4046 1.5623e+00     49.898     0.4931 0.0000e+00
     49.000     8.1028    31.3625    9.86479  102.38277    24.4050 1.5648e+00     49.050     0.4704 0.0000e+00
     48.000     8.1197    31.3642    9.87027  102.44336    24.4057 1.5680e+00     47.994     0.4815 0.0000e+00
     47.000     8.1261    31.3584    9.86035  102.34373    24.3992 1.5717e+00     47.098     0.4814 0.0000e+00
     46.000     8.1304    31.3543    9.86799  102.42437    24.3946 1.5760e+00     46.123     0.5248 0.0000e+00
     45.000     8.1320    31.3510    9.88137  102.56316    24.3909 1.5820e+00     44.994     0.5492 0.0000e+00
     44.000     8.1338    31.3499    9.86376  102.37931    24.3899 1.5879e+00     44.366     0.5047 0.0000e+00
     43.000     8.1388    31.3495    9.87065  102.45210    24.3894 1.5956e+00     43.348     0.4896 0.0000e+00
     42.000     8.1431    31.3491    9.87999  102.55018    24.3887 1.6035e+00     42.402     0.5458 0.0000e+00
     41.000     8.1461    31.3474    9.88140  102.56240    24.3868 1.6148e+00     41.673     0.5006 0.0000e+00
     40.000     8.1480    31.3454    9.87622  102.51064    24.3846 1.6272e+00     40.705     0.4616 0.0000e+00
     39.000     8.1482    31.3444    9.88057  102.55750    24.3832 1.6413e+00     39.842     0.5224 0.0000e+00
     38.000     8.1480    31.3432    9.87241  102.47470    24.3821 1.6590e+00     39.001     0.5296 0.0000e+00
     37.000     8.1475    31.3431    9.87210  102.47427    24.3821 1.6796e+00     38.096     0.6014 0.0000e+00
     36.000     8.1488    31.3435    9.86362  102.38898    24.3824 1.7047e+00     37.072     0.6122 0.0000e+00
     35.000     8.1504    31.3439    9.86425  102.39797    24.3826 1.7354e+00     36.001     0.5459 0.0000e+00
     34.000     8.1510    31.3436    9.86270  102.38680    24.3820 1.7717e+00     34.664     0.5002 0.0000e+00
     33.000     8.1522    31.3429    9.86147  102.37159    24.3816 1.8108e+00     32.942     0.5089 0.0000e+00
     32.000     8.1515    31.3433    9.87557  102.54693    24.3818 1.8585e+00     32.326     0.5969 0.0000e+00
     31.000     8.1541    31.3429    9.87892  102.62670    24.3814 1.9144e+00     31.188     0.5044 0.0000e+00
     30.000     8.1558    31.3424    9.88053  102.67672    24.3806 1.9855e+00     30.065     0.5122 0.0000e+00
     29.000     8.1571    31.3419    9.88238  102.71533    24.3801 2.0667e+00     29.185     0.5153 0.0000e+00
     28.000     8.1591    31.3417    9.86493  102.55805    24.3797 2.1698e+00     27.857     0.5797 0.0000e+00
     27.000     8.1602    31.3419    9.88293  102.74998    24.3796 2.2842e+00     27.219     0.4817 0.0000e+00
     26.000     8.1600    31.3404    9.87061  102.64531    24.3782 2.4200e+00     25.987     0.4947 0.0000e+00
     25.000     8.1667    31.3414    9.88255  102.79328    24.3792 2.5787e+00     25.299     0.4896 0.0000e+00
     24.000     8.1779    31.3453    9.86935  102.67365    24.3813 2.7687e+00     24.226     0.5286 0.0000e+00
     23.000     8.1934    31.3465    9.89198  102.96008    24.3808 2.9937e+00     23.161     0.5108 0.0000e+00
     22.000     8.2028    31.3468    9.87245  102.77208    24.3790 3.2693e+00     22.188     0.5223 0.0000e+00
     21.000     8.2130    31.3462    9.86827  102.80545    24.3768 3.5788e+00     21.035     0.5225 0.0000e+00
     20.000     8.2200    31.3416    9.87796  102.95904    24.3716 3.9701e+00     20.095     0.5123 0.0000e+00
     19.000     8.2268    31.3393    9.89499  103.25031    24.3688 4.4227e+00     18.799     0.4945 0.0000e+00
     18.000     8.2328    31.3370    9.87969  103.47382    24.3664 5.0008e+00     18.017     0.5045 0.0000e+00
     17.000     8.2444    31.3344    9.87165  103.61895    24.3635 5.6604e+00     17.096     0.5144 0.0000e+00
     16.000     8.2537    31.3314    9.87914  103.85876    24.3597 6.4505e+00     16.057     0.5343 0.0000e+00
     15.000     8.2684    31.3267    9.87998  104.01198    24.3544 7.4082e+00     15.019     0.5589 0.0000e+00
     14.000     8.2813    31.3253    9.87782  104.11721    24.3525 8.5641e+00     14.188     0.5751 0.0000e+00
     13.000     8.2915    31.3136    9.92657  104.72560    24.3399 9.9951e+00     12.893     0.5522 0.0000e+00
     12.000     8.3178    31.3117    9.93239  104.82311    24.3380 1.1763e+01     12.162     0.5602 0.0000e+00
     11.000     8.3495    31.2982    9.92508  104.80825    24.3238 1.3954e+01     11.003     0.5899 0.0000e+00
     10.000 -9.990e-29 -9.990e-29 -9.990e-29 -9.990e-29 -9.990e-29 -9.990e-29 -9.990e-29 -9.990e-29 -9.990e-29
      9.000     8.4355    31.2699    9.77390  103.08330    24.2949 1.9608e+01      9.395     0.5675 0.0000e+00
      8.000     8.8023    31.2367 -9.990e-29 -9.990e-29    24.2594 2.5247e+01      7.666     0.6174 0.0000e+00
      7.000     8.8650    31.1537 -9.990e-29 -9.990e-29    24.1814 3.1605e+01      7.374     0.6126 0.0000e+00
      6.000     8.8655    30.8388 -9.990e-29 -9.990e-29    23.8886 4.0324e+01      6.249     0.6341 0.0000e+00
      5.000     8.9271    30.7913 -9.990e-29 -9.990e-29    23.8449 5.1525e+01      5.306     0.6220 0.0000e+00
      4.000     9.0061    30.7728 -9.990e-29 -9.990e-29    23.8268 6.4827e+01      4.616     0.6414 0.0000e+00
      3.000     9.0681    30.6982 -9.990e-29 -9.990e-29    23.7528 8.4330e+01      3.599     0.5926 0.0000e+00
      2.000     9.0811    30.6591 -9.990e-29 -9.990e-29    23.7144 1.0827e+02      2.943     0.6270 0.0000e+00
      1.000     9.1387    30.6381 -9.990e-29 -9.990e-29    23.6941 1.7111e+02      2.234     0.6468 0.0000e+00
