* Sea-Bird SBE19plus Data File:
* FileName = C:\data\otf\2007\ctd-07124.hex
* Software Version 1.55
* Temperature SN =  5061
* Conductivity SN =  5061
* System UpLoad Time = Aug 15 2007 17:19:14
* ds
* SeacatPlus V 1.6a  SERIAL NO. 5061    15 Aug 2007  15:31:53
* vbatt = 10.9, vlith =  8.7, ioper =  61.6 ma, ipump =  57.5 ma, 
* iext01 =  95.2 ma
* iext23 =  58.1 ma
* 
* status = not logging
* number of scans to average = 1
* samples = 153039, free = 288466, casts = 154
* mode = profile, minimum cond freq = 3000, pump delay = 60 sec
* autorun = no, ignore magnetic switch = no
* battery type = alkaline, battery cutoff =  7.3 volts
* pressure sensor = strain gauge, range = 870.0
* SBE 38 = no, Gas Tension Device = no
* Ext Volt 0 = yes, Ext Volt 1 = yes, Ext Volt 2 = yes, Ext Volt 3 = yes
* echo commands = yes
* output format = raw HEX
* S>
* 
* SeacatPlus V 1.6a  SERIAL NO. 5061    15 Aug 2007  15:32:18
* temperature:  05-oct-06
*     TA0 = 1.254184e-03
*     TA1 = 2.596730e-04
*     TA2 = 5.165612e-07
*     TA3 = 1.318931e-07
*     TOFFSET = 0.000000e+00
* conductivity:  05-oct-06
*     G = -9.978144e-01
*     H = 1.555200e-01
*     I = -4.839108e-04
*     J = 6.121100e-05
*     CF0 = 2.539936e+03
*     CPCOR = -9.570000e-08
*     CTCOR = 3.250000e-06
*     CSLOPE = 1.000000e+00
* pressure S/N = 2362539, range = 870 psia:  24-aug-06
*     PA0 = 2.171091e-01
*     PA1 = 2.647085e-03
*     PA2 = 1.419397e-11
*     PTCA0 = 5.242437e+05
*     PTCA1 = 7.545345e+00
*     PTCA2 = -1.835354e-01
*     PTCB0 = 2.537125e+01
*     PTCB1 = -1.750000e-03
*     PTCB2 = 0.000000e+00
*     PTEMPA0 = -5.753989e+01
*     PTEMPA1 = 5.235813e+01
*     PTEMPA2 = -4.015521e-02
*     POFFSET = 0.000000e+00
* volt 0: offset = -4.682842e-02, slope = 1.249147e+00
* volt 1: offset = -4.695158e-02, slope = 1.248145e+00
* volt 2: offset = -4.685263e-02, slope = 1.248783e+00
* volt 3: offset = -4.690316e-02, slope = 1.249508e+00
*     EXTFREQSF = 1.000002e+00
* dh
* cast 124 23 Jul 2007 19:40:30 samples 121218 to 122498, avg = 1, stop = mag switch
* S> 
# nquan = 10
# nvalues = 159                         
# units = specified
# name 0 = depSM: Depth [salt water, m]
# name 1 = tv290C: Temperature [ITS-90, deg C]
# name 2 = sal00: Salinity [PSU]
# name 3 = sbeox0Mg/L: Oxygen, SBE 43 [mg/l]
# name 4 = sbeox0PS: Oxygen, SBE 43 [% saturation]
# name 5 = sigma-t00: Density [sigma-t, Kg/m^3 ]
# name 6 = par: PAR/Irradiance, Biospherical/Licor
# name 7 = prdM: Pressure, Strain Gauge [db]
# name 8 = flECO-AFL: Fluorescence, Wetlab ECO-AFL/FL [mg/m^3]
# name 9 = flag: flag
# span 0 =      1.000,     82.000       
# span 1 =     8.4524,    10.9533       
# span 2 =    28.9502,    31.5720       
# span 3 =    7.89621,    9.53213       
# span 4 =   85.60895,  100.89112       
# span 5 =    22.0819,    24.5172       
# span 6 = 1.5467e+00, 8.8751e+01       
# span 7 =      1.157,     82.687       
# span 8 =     0.5399,     1.1771       
# span 9 = 0.0000e+00, 0.0000e+00       
# interval = meters: 1                  
# start_time = Jul 23 2007 19:40:30
# bad_flag = -9.990e-29
# sensor 0 = Frequency 0  temperature, 5061, 05-Oct-06
# sensor 1 = Frequency 1  conductivity, 5061, 05-Oct-06, cpcor = -9.5700e-08
# sensor 2 = Pressure Number
# sensor 3 = Extrnl Volt  0  irradiance (PAR), primary, 4751, 08/10/06
# sensor 4 = Extrnl Volt  1  Oxygen, SBE, primary, 1081, 10/24/06
# sensor 5 = Extrnl Volt  2  WET Labs, ECO_AFL
# sensor 6 = Extrnl Volt  3  userpoly 0, 0627, 10/11/06
# datcnv_date = Oct 15 2007 14:49:51, 5.37e
# datcnv_in = I:\bob d\OTF_GEM\2007\ctd-07124.hex I:\Willette\OTF\CTD\5061.con
# datcnv_skipover = 0
# filter_date = Oct 15 2007 15:02:39, 5.37e
# filter_in = I:\Willette\OTF\CTD\2007\CTD Data\ctd-07124.cnv
# filter_low_pass_tc_A = 1.000
# filter_low_pass_tc_B = 0.150
# filter_low_pass_A_vars = prdM
# filter_low_pass_B_vars =
# loopedit_date = Oct 15 2007 15:06:57, 5.37e
# loopedit_in = I:\Willette\OTF\CTD\2007\CTD Data\ctd-07124.cnv
# loopedit_minVelocity = 0.250                                                                                            
# loopedit_surfaceSoak: minDepth = 5.0, maxDepth = 20, useDeckPress = 1                                                   
# loopedit_excl_bad_scans = yes
# alignctd_date = Oct 15 2007 15:14:23, 5.37e
# alignctd_in = I:\Willette\OTF\CTD\2007\CTD Data\ctd-07124.cnv
# alignctd_adv = tv290C 0.500, sbeox0Mg/L 4.000, sbeox0PS 4.000                                                                                                                                                                      
# binavg_date = Oct 15 2007 15:18:51, 5.37e
# binavg_in = I:\Willette\OTF\CTD\2007\CTD Data\ctd-07124.cnv
# binavg_bintype = meters
# binavg_binsize = 1
# binavg_excl_bad_scans = yes
# binavg_skipover = 0
# binavg_surface_bin = no, min = 0.000, max = 0.000, value = 0.000
# file_type = ascii
*END*
      5.000    10.7847    29.2202    8.06036   87.59407    22.3020 1.4576e+01      4.825     1.0436 0.0000e+00
      6.000    10.7088    29.3454    7.89621   85.60895    22.4187 1.2125e+01      6.026     0.9037 0.0000e+00
      7.000    10.6061    29.4894    8.17827   88.50623    22.5519 9.4656e+00      7.417     0.8041 0.0000e+00
      8.000    10.5637    29.5236    8.32023   90.00840    22.5839 7.7851e+00      8.085     0.8433 0.0000e+00
      9.000    10.5517    29.5649    8.39868   90.78431    22.6214 6.1369e+00      9.149     0.7971 0.0000e+00
     10.000    10.5322    29.5608    8.44499   91.19938    22.6195 5.0256e+00     10.202     0.7435 0.0000e+00
     11.000    10.4990    29.5766    8.50474   91.79353    22.6366 4.1386e+00     11.014     0.7212 0.0000e+00
     12.000    10.4620    29.6119    8.54309   92.17917    22.6701 3.4765e+00     12.034     0.6856 0.0000e+00
     13.000    10.3954    29.6772    8.50913   91.80603    22.7304 3.0042e+00     13.085     0.6492 0.0000e+00
     14.000    10.3316    29.7648    8.41372   90.75499    22.8099 2.6240e+00     14.098     0.6330 0.0000e+00
     15.000    10.3052    29.8159    8.49180   91.58061    22.8567 2.3523e+00     15.067     0.6132 0.0000e+00
     16.000    10.2958    29.8410    8.50137   91.66842    22.8786 2.1435e+00     16.199     0.6147 0.0000e+00
     17.000    10.2757    29.8501    8.57854   92.46633    22.8880 2.0045e+00     17.115     0.6170 0.0000e+00
     18.000    10.2686    29.8696    8.66959   93.26769    22.9055 1.8826e+00     18.262     0.6067 0.0000e+00
     19.000    10.2509    29.8800    8.75309   94.01261    22.9151 1.8003e+00     19.216     0.6181 0.0000e+00
     20.000    10.2043    29.9183    8.89224   95.33973    22.9492 1.7365e+00     20.297     0.6303 0.0000e+00
     21.000    10.1001    30.0316    8.97037   96.11673    23.0507 1.6914e+00     21.209     0.6149 0.0000e+00
     22.000    10.0063    30.1451    9.03845   96.72831    23.1558 1.6561e+00     22.249     0.6052 0.0000e+00
     23.000     9.9076    30.2518    9.08553   97.16841    23.2537 1.6289e+00     23.292     0.5951 0.0000e+00
     24.000     9.8508    30.3308    9.12307   97.55566    23.3284 1.6094e+00     24.284     0.5898 0.0000e+00
     25.000     9.8141    30.3741    9.16308   97.91787    23.3681 1.5955e+00     25.173     0.5886 0.0000e+00
     26.000     9.7381    30.4550    9.18966   98.07851    23.4407 1.5838e+00     26.075     0.6135 0.0000e+00
     27.000     9.7014    30.5280    9.21786   98.25147    23.5096 1.5742e+00     27.289     0.5926 0.0000e+00
     28.000     9.6812    30.5392    9.23649   98.40745    23.5195 1.5690e+00     28.159     0.6120 0.0000e+00
     29.000     9.5649    30.6230    9.26501   98.65875    23.5990 1.5640e+00     29.297     0.5975 0.0000e+00
     30.000     9.4986    30.6960    9.28196   98.82382    23.6698 1.5608e+00     30.309     0.5997 0.0000e+00
     31.000     9.4688    30.7279    9.29028   98.88971    23.7006 1.5587e+00     31.277     0.5873 0.0000e+00
     32.000     9.4472    30.7509    9.31052   99.04321    23.7231 1.5568e+00     32.300     0.5984 0.0000e+00
     33.000     9.4373    30.7601    9.31983   98.96669    23.7322 1.5552e+00     33.350     0.6003 0.0000e+00
     34.000     9.4239    30.7673    9.33098   99.02778    23.7396 1.5540e+00     34.344     0.6066 0.0000e+00
     35.000     9.3910    30.7754    9.34163   99.10479    23.7480 1.5535e+00     35.273     0.6197 0.0000e+00
     36.000     9.2778    30.8569    9.35528   99.21551    23.8275 1.5527e+00     36.396     0.6130 0.0000e+00
     37.000     9.2464    30.9148    9.36117   99.24880    23.8824 1.5520e+00     37.414     0.5859 0.0000e+00
     38.000     9.2310    30.9293    9.36899   99.25430    23.8952 1.5517e+00     38.231     0.6000 0.0000e+00
     39.000     9.2079    30.9500    9.37668   99.13836    23.9161 1.5514e+00     39.479     0.6173 0.0000e+00
     40.000     9.1940    30.9505    9.38805   98.95282    23.9178 1.5517e+00     40.464     0.6183 0.0000e+00
     41.000     9.1492    30.9688    9.39244   98.92109    23.9364 1.5510e+00     41.252     0.6292 0.0000e+00
     42.000     9.0417    31.0354    9.40732   99.00449    24.0015 1.5509e+00     42.479     0.6275 0.0000e+00
     43.000     8.8853    31.1399    9.41593   99.03656    24.1027 1.5507e+00     43.390     0.6350 0.0000e+00
     44.000     8.8095    31.2486    9.42736   99.12791    24.2075 1.5506e+00     44.398     0.6561 0.0000e+00
     45.000     8.7720    31.2849    9.43310   99.17220    24.2424 1.5506e+00     45.500     0.6588 0.0000e+00
     46.000     8.7371    31.3179    9.43681   99.20383    24.2736 1.5505e+00     46.411     0.6684 0.0000e+00
     47.000     8.7190    31.3440    9.44209   99.24318    24.2983 1.5508e+00     47.436     0.6799 0.0000e+00
     48.000     8.7107    31.3520    9.44836   99.28412    24.3061 1.5504e+00     48.445     0.6819 0.0000e+00
     49.000     8.7049    31.3598    9.45207   99.29627    24.3134 1.5502e+00     49.452     0.6746 0.0000e+00
     50.000     8.6949    31.3652    9.45390   99.29733    24.3184 1.5504e+00     50.418     0.6833 0.0000e+00
     51.000     8.6775    31.3816    9.45591   99.28998    24.3339 1.5503e+00     51.472     0.6915 0.0000e+00
     52.000     8.6609    31.3958    9.45908   99.30279    24.3475 1.5498e+00     52.460     0.6936 0.0000e+00
     53.000     8.6474    31.4064    9.46145   99.30621    24.3579 1.5499e+00     53.530     0.6841 0.0000e+00
     54.000     8.6301    31.4194    9.46860   99.34018    24.3707 1.5503e+00     54.515     0.6888 0.0000e+00
     55.000     8.6206    31.4269    9.47404   99.35949    24.3781 1.5502e+00     55.478     0.6812 0.0000e+00
     56.000     8.6016    31.4355    9.47145   99.30528    24.3871 1.5498e+00     56.616     0.6906 0.0000e+00
     57.000     8.5782    31.4524    9.47267   99.30309    24.4038 1.5500e+00     57.492     0.6876 0.0000e+00
     58.000     8.5613    31.4690    9.47423   99.30736    24.4198 1.5499e+00     58.577     0.6738 0.0000e+00
     59.000     8.5500    31.4791    9.47645   99.31135    24.4295 1.5500e+00     59.593     0.6898 0.0000e+00
     60.000     8.5418    31.4887    9.48473   99.38362    24.4385 1.5500e+00     60.528     0.6834 0.0000e+00
     61.000     8.5322    31.4957    9.49156   99.43544    24.4450 1.5500e+00     61.712     0.6732 0.0000e+00
     62.000     8.5228    31.5048    9.49576   99.46000    24.4536 1.5497e+00     62.495     0.7049 0.0000e+00
     63.000     8.5133    31.5147    9.50186   99.50259    24.4630 1.5501e+00     63.688     0.6955 0.0000e+00
     64.000     8.5002    31.5225    9.49647   99.44061    24.4706 1.5499e+00     64.564     0.7142 0.0000e+00
     65.000     8.4874    31.5353    9.49853   99.44961    24.4829 1.5498e+00     65.621     0.7149 0.0000e+00
     66.000     8.4821    31.5413    9.50070   99.46699    24.4886 1.5500e+00     66.656     0.7181 0.0000e+00
     67.000     8.4753    31.5462    9.50429   99.50072    24.4933 1.5498e+00     67.580     0.7049 0.0000e+00
     68.000     8.4706    31.5522    9.50682   99.52543    24.4989 1.5497e+00     68.714     0.7249 0.0000e+00
     69.000     8.4680    31.5552    9.50917   99.54624    24.5017 1.5496e+00     69.576     0.7333 0.0000e+00
     70.000     8.4668    31.5568    9.51138   99.56788    24.5032 1.5495e+00     70.699     0.7202 0.0000e+00
     71.000     8.4645    31.5583    9.51142   99.56499    24.5047 1.5492e+00     71.581     0.7315 0.0000e+00
     72.000     8.4630    31.5600    9.51631   99.61473    24.5062 1.5491e+00     72.783     0.7292 0.0000e+00
     73.000     8.4615    31.5617    9.52043   99.65213    24.5078 1.5485e+00     73.687     0.7322 0.0000e+00
     74.000     8.4609    31.5616    9.52576   99.70203    24.5077 1.5487e+00     74.815     0.7449 0.0000e+00
     75.000     8.4574    31.5646    9.53213   99.76812    24.5105 1.5490e+00     75.679     0.7399 0.0000e+00
     76.000     8.4538    31.5690    9.53178   99.76390    24.5146 1.5487e+00     76.820     0.7265 0.0000e+00
     77.000     8.4529    31.5709    9.53063   99.75167    24.5163 1.5485e+00     77.690     0.7401 0.0000e+00
     78.000     8.4525    31.5715    9.52912   99.73650    24.5169 1.5491e+00     78.821     0.7513 0.0000e+00
     79.000     8.4524    31.5715    9.52940   99.73930    24.5169 1.5488e+00     79.732     0.7695 0.0000e+00
     80.000     8.4525    31.5717    9.52593   99.70293    24.5170 1.5489e+00     80.695     0.7610 0.0000e+00
     81.000     8.4524    31.5719    9.52465   99.69066    24.5171 1.5485e+00     81.682     0.7565 0.0000e+00
     82.000     8.4525    31.5720    9.51363   99.57749    24.5172 1.5491e+00     82.687     0.7577 0.0000e+00
     81.000 -9.990e-29 -9.990e-29 -9.990e-29 -9.990e-29 -9.990e-29 -9.990e-29 -9.990e-29 -9.990e-29 -9.990e-29
     80.000     8.4534    31.5711    9.52397   99.68472    24.5165 1.5488e+00     80.381     0.7272 0.0000e+00
     79.000     8.4540    31.5713    9.52243   99.66744    24.5166 1.5493e+00     79.577     0.7416 0.0000e+00
     78.000     8.4537    31.5704    9.52339   99.68040    24.5158 1.5492e+00     78.778     0.7694 0.0000e+00
     77.000     8.4531    31.5714    9.52237   99.67258    24.5167 1.5485e+00     77.579     0.7715 0.0000e+00
     76.000     8.4547    31.5698    9.52184   99.66919    24.5153 1.5486e+00     76.795     0.7608 0.0000e+00
     75.000     8.4569    31.5662    9.52200   99.67448    24.5121 1.5485e+00     75.748     0.7719 0.0000e+00
     74.000     8.4581    31.5652    9.52320   99.68957    24.5111 1.5483e+00     74.692     0.7587 0.0000e+00
     73.000     8.4606    31.5628    9.52005   99.65911    24.5089 1.5481e+00     73.748     0.7813 0.0000e+00
     72.000     8.4624    31.5603    9.51983   99.65957    24.5067 1.5480e+00     72.659     0.7550 0.0000e+00
     71.000     8.4640    31.5588    9.52258   99.68964    24.5053 1.5477e+00     71.692     0.7165 0.0000e+00
     70.000     8.4656    31.5572    9.52072   99.67232    24.5037 1.5483e+00     70.724     0.7618 0.0000e+00
     69.000     8.4667    31.5555    9.51946   99.66643    24.5023 1.5478e+00     69.600     0.7237 0.0000e+00
     68.000     8.4683    31.5541    9.52004   99.68329    24.5010 1.5478e+00     68.711     0.7293 0.0000e+00
     67.000     8.4722    31.5500    9.52533   99.75184    24.4973 1.5479e+00     67.622     0.7362 0.0000e+00
     66.000     8.4796    31.5443    9.51846   99.69673    24.4919 1.5479e+00     66.642     0.7187 0.0000e+00
     65.000     8.4877    31.5373    9.51008   99.63395    24.4852 1.5478e+00     65.611     0.7185 0.0000e+00
     64.000     8.4973    31.5299    9.50413   99.58818    24.4781 1.5479e+00     64.649     0.7048 0.0000e+00
     63.000     8.5128    31.5168    9.50689   99.63458    24.4656 1.5476e+00     63.597     0.7144 0.0000e+00
     62.000     8.5227    31.5073    9.50561   99.63392    24.4566 1.5475e+00     62.624     0.6997 0.0000e+00
     61.000     8.5332    31.4973    9.51076   99.70443    24.4472 1.5474e+00     61.563     0.7072 0.0000e+00
     60.000     8.5410    31.4895    9.50627   99.66486    24.4399 1.5467e+00     60.620     0.6818 0.0000e+00
     59.000     8.5515    31.4775    9.49904   99.61017    24.4288 1.5467e+00     59.522     0.6735 0.0000e+00
     58.000     8.5566    31.4738    9.50210   99.68087    24.4252 1.5470e+00     58.579     0.6601 0.0000e+00
     57.000     8.5724    31.4639    9.50881   99.79353    24.4156 1.5471e+00     57.537     0.6693 0.0000e+00
     56.000     8.5945    31.4479    9.50805   99.81049    24.3999 1.5472e+00     56.531     0.6705 0.0000e+00
     55.000     8.6155    31.4324    9.50378   99.79390    24.3844 1.5472e+00     55.519     0.6584 0.0000e+00
     54.000     8.6279    31.4231    9.49751   99.75849    24.3751 1.5474e+00     54.551     0.6614 0.0000e+00
     53.000     8.6465    31.4095    9.50165   99.83800    24.3619 1.5476e+00     53.453     0.6565 0.0000e+00
     52.000     8.6642    31.3957    9.50265   99.86363    24.3485 1.5473e+00     52.549     0.6537 0.0000e+00
     51.000     8.6833    31.3776    9.49766   99.82881    24.3312 1.5473e+00     51.445     0.6256 0.0000e+00
     50.000     8.6937    31.3672    9.50191   99.88440    24.3214 1.5472e+00     50.472     0.6447 0.0000e+00
     49.000     8.7020    31.3571    9.50441   99.92781    24.3121 1.5472e+00     49.476     0.6509 0.0000e+00
     48.000     8.7097    31.3496    9.50305   99.95509    24.3052 1.5473e+00     48.468     0.6686 0.0000e+00
     47.000     8.7234    31.3381    9.50637  100.05965    24.2945 1.5471e+00     47.453     0.6395 0.0000e+00
     46.000     8.7592    31.3081    9.50068  100.08655    24.2664 1.5472e+00     46.419     0.6210 0.0000e+00
     45.000     8.7996    31.2716    9.49369  100.29109    24.2316 1.5473e+00     45.415     0.6306 0.0000e+00
     44.000     8.8714    31.2291    9.49085  100.49895    24.1905 1.5473e+00     44.404     0.6146 0.0000e+00
     43.000     9.0357    31.1035    9.48478  100.52997    24.0692 1.5476e+00     43.423     0.5913 0.0000e+00
     42.000     9.1503    30.9916    9.47088  100.41642    23.9607 1.5475e+00     42.392     0.5875 0.0000e+00
     41.000     9.1945    30.9537    9.46409  100.36903    23.9225 1.5474e+00     41.410     0.6022 0.0000e+00
     40.000     9.2065    30.9464    9.46059  100.36614    23.9145 1.5474e+00     40.368     0.5654 0.0000e+00
     39.000     9.2255    30.9352    9.45785  100.35518    23.9031 1.5479e+00     39.386     0.5789 0.0000e+00
     38.000     9.2401    30.9154    9.45965  100.49967    23.8852 1.5487e+00     38.409     0.5713 0.0000e+00
     37.000     9.2622    30.8950    9.47048  100.81681    23.8667 1.5489e+00     37.304     0.5399 0.0000e+00
     36.000     9.3969    30.8044    9.45853  100.68099    23.7781 1.5494e+00     36.337     0.5644 0.0000e+00
     35.000     9.4254    30.7623    9.45624  100.66646    23.7368 1.5504e+00     35.331     0.5659 0.0000e+00
     34.000     9.4317    30.7577    9.45616  100.68541    23.7320 1.5512e+00     34.316     0.5605 0.0000e+00
     33.000     9.4383    30.7549    9.45735  100.74330    23.7289 1.5527e+00     33.347     0.5483 0.0000e+00
     32.000     9.4519    30.7465    9.45532  100.79228    23.7206 1.5544e+00     32.292     0.5487 0.0000e+00
     31.000     9.4876    30.7188    9.44803  100.82505    23.6942 1.5572e+00     31.287     0.5626 0.0000e+00
     30.000     9.5330    30.6815    9.44126  100.89112    23.6584 1.5609e+00     30.289     0.5577 0.0000e+00
     29.000     9.6241    30.6097    9.42336  100.73008    23.5894 1.5654e+00     29.302     0.5561 0.0000e+00
     28.000     9.6753    30.5487    9.42350  100.75065    23.5311 1.5717e+00     28.271     0.5780 0.0000e+00
     27.000     9.6865    30.5338    9.42401  100.83875    23.5174 1.5802e+00     27.241     0.5597 0.0000e+00
     26.000     9.7194    30.5049    9.41250  100.78763    23.4912 1.5924e+00     26.250     0.5424 0.0000e+00
     25.000     9.7787    30.4299    9.39423  100.62857    23.4232 1.6073e+00     25.217     0.5465 0.0000e+00
     24.000     9.8120    30.3836    9.38629  100.63748    23.3807 1.6287e+00     24.223     0.5598 0.0000e+00
     23.000     9.8370    30.3550    9.38226  100.77436    23.3548 1.6571e+00     23.181     0.5421 0.0000e+00
     22.000     9.9172    30.2838    9.36224  100.73369    23.2896 1.6963e+00     22.211     0.5460 0.0000e+00
     21.000    10.0237    30.1647    9.34235  100.59648    23.1807 1.7473e+00     21.207     0.5610 0.0000e+00
     20.000    10.1338    30.0275    9.32992  100.51757    23.0547 1.8147e+00     20.181     0.5655 0.0000e+00
     19.000    10.1777    29.9645    9.31664  100.42831    22.9958 1.9089e+00     19.185     0.5808 0.0000e+00
     18.000    10.2139    29.9274    9.31025  100.39749    22.9614 2.0304e+00     18.056     0.6129 0.0000e+00
     17.000    10.2411    29.8959    9.30353  100.34148    22.9322 2.1963e+00     17.185     0.6123 0.0000e+00
     16.000    10.2711    29.8551    9.29010  100.21640    22.8954 2.4041e+00     16.093     0.5973 0.0000e+00
     15.000    10.2900    29.8197    9.28420  100.18497    22.8643 2.7126e+00     15.154     0.6113 0.0000e+00
     14.000    10.3022    29.7976    9.27435  100.12797    22.8449 3.1058e+00     14.189     0.5896 0.0000e+00
     13.000    10.3335    29.7563    9.26163  100.09968    22.8084 3.6292e+00     13.039     0.6183 0.0000e+00
     12.000    10.3547    29.7291    9.25653  100.10678    22.7843 4.3110e+00     12.256     0.6219 0.0000e+00
     11.000    10.4460    29.6187    9.25061  100.15838    22.6836 5.2491e+00     10.873     0.6397 0.0000e+00
     10.000    10.4692    29.6049    9.24439  100.10066    22.6698 6.3986e+00     10.263     0.6479 0.0000e+00
      9.000    10.5487    29.5320    9.23142  100.02153    22.5984 8.0926e+00      8.835     0.7598 0.0000e+00
      8.000    10.5455    29.5412    9.23189  100.03991    22.6057 1.0324e+01      8.187     0.7728 0.0000e+00
      7.000    10.5719    29.5370    9.22820  100.05431    22.5981 1.3133e+01      6.988     0.8747 0.0000e+00
      6.000    10.5903    29.5155    9.22615  100.14412    22.5786 1.7458e+01      6.056     0.8837 0.0000e+00
      5.000    10.6181    29.4794    9.22889  100.30742    22.5460 2.2491e+01      5.032     0.8997 0.0000e+00
      4.000    10.6696    29.4331    9.23536  100.44903    22.5038 2.9458e+01      4.054     0.9381 0.0000e+00
      3.000    10.7805    29.3178    9.23266  100.49031    22.3988 3.8264e+01      3.000     1.0324 0.0000e+00
      2.000    10.8678    29.1678    9.16101   99.68717    22.2660 4.6774e+01      2.049     1.1132 0.0000e+00
      1.000    10.9533    28.9502    9.08533   98.80255    22.0819 8.8751e+01      1.157     1.1771 0.0000e+00
