* Sea-Bird SBE19plus Data File:
* FileName = C:\data\otf\2007\ctd-07111.hex
* Software Version 1.55
* Temperature SN =  5061
* Conductivity SN =  5061
* System UpLoad Time = Aug 15 2007 16:39:50
* ds
* SeacatPlus V 1.6a  SERIAL NO. 5061    15 Aug 2007  15:31:53
* vbatt = 10.9, vlith =  8.7, ioper =  61.6 ma, ipump =  57.5 ma, 
* iext01 =  95.2 ma
* iext23 =  58.1 ma
* 
* status = not logging
* number of scans to average = 1
* samples = 153039, free = 288466, casts = 154
* mode = profile, minimum cond freq = 3000, pump delay = 60 sec
* autorun = no, ignore magnetic switch = no
* battery type = alkaline, battery cutoff =  7.3 volts
* pressure sensor = strain gauge, range = 870.0
* SBE 38 = no, Gas Tension Device = no
* Ext Volt 0 = yes, Ext Volt 1 = yes, Ext Volt 2 = yes, Ext Volt 3 = yes
* echo commands = yes
* output format = raw HEX
* S>
* 
* SeacatPlus V 1.6a  SERIAL NO. 5061    15 Aug 2007  15:32:18
* temperature:  05-oct-06
*     TA0 = 1.254184e-03
*     TA1 = 2.596730e-04
*     TA2 = 5.165612e-07
*     TA3 = 1.318931e-07
*     TOFFSET = 0.000000e+00
* conductivity:  05-oct-06
*     G = -9.978144e-01
*     H = 1.555200e-01
*     I = -4.839108e-04
*     J = 6.121100e-05
*     CF0 = 2.539936e+03
*     CPCOR = -9.570000e-08
*     CTCOR = 3.250000e-06
*     CSLOPE = 1.000000e+00
* pressure S/N = 2362539, range = 870 psia:  24-aug-06
*     PA0 = 2.171091e-01
*     PA1 = 2.647085e-03
*     PA2 = 1.419397e-11
*     PTCA0 = 5.242437e+05
*     PTCA1 = 7.545345e+00
*     PTCA2 = -1.835354e-01
*     PTCB0 = 2.537125e+01
*     PTCB1 = -1.750000e-03
*     PTCB2 = 0.000000e+00
*     PTEMPA0 = -5.753989e+01
*     PTEMPA1 = 5.235813e+01
*     PTEMPA2 = -4.015521e-02
*     POFFSET = 0.000000e+00
* volt 0: offset = -4.682842e-02, slope = 1.249147e+00
* volt 1: offset = -4.695158e-02, slope = 1.248145e+00
* volt 2: offset = -4.685263e-02, slope = 1.248783e+00
* volt 3: offset = -4.690316e-02, slope = 1.249508e+00
*     EXTFREQSF = 1.000002e+00
* dh
* cast 111 22 Jul 2007 10:13:54 samples 72752 to 73549, avg = 1, stop = mag switch
* S> 
# nquan = 10
# nvalues = 111                         
# units = specified
# name 0 = depSM: Depth [salt water, m]
# name 1 = tv290C: Temperature [ITS-90, deg C]
# name 2 = sal00: Salinity [PSU]
# name 3 = sbeox0Mg/L: Oxygen, SBE 43 [mg/l]
# name 4 = sbeox0PS: Oxygen, SBE 43 [% saturation]
# name 5 = sigma-t00: Density [sigma-t, Kg/m^3 ]
# name 6 = par: PAR/Irradiance, Biospherical/Licor
# name 7 = prdM: Pressure, Strain Gauge [db]
# name 8 = flECO-AFL: Fluorescence, Wetlab ECO-AFL/FL [mg/m^3]
# name 9 = flag: flag
# span 0 =      1.000,     58.000       
# span 1 =     9.4326,    10.3380       
# span 2 =    30.1251,    30.7815       
# span 3 =    8.38178,    9.47518       
# span 4 =   90.50528,  101.31187       
# span 5 =    23.0952,    23.7504       
# span 6 = 1.5432e+00, 1.7340e+02       
# span 7 =      1.052,     58.275       
# span 8 =     0.9067,     1.6472       
# span 9 = 0.0000e+00, 0.0000e+00       
# interval = meters: 1                  
# start_time = Jul 22 2007 10:13:54
# bad_flag = -9.990e-29
# sensor 0 = Frequency 0  temperature, 5061, 05-Oct-06
# sensor 1 = Frequency 1  conductivity, 5061, 05-Oct-06, cpcor = -9.5700e-08
# sensor 2 = Pressure Number
# sensor 3 = Extrnl Volt  0  irradiance (PAR), primary, 4751, 08/10/06
# sensor 4 = Extrnl Volt  1  Oxygen, SBE, primary, 1081, 10/24/06
# sensor 5 = Extrnl Volt  2  WET Labs, ECO_AFL
# sensor 6 = Extrnl Volt  3  userpoly 0, 0627, 10/11/06
# datcnv_date = Oct 15 2007 14:49:48, 5.37e
# datcnv_in = I:\bob d\OTF_GEM\2007\ctd-07111.hex I:\Willette\OTF\CTD\5061.con
# datcnv_skipover = 0
# filter_date = Oct 15 2007 15:02:30, 5.37e
# filter_in = I:\Willette\OTF\CTD\2007\CTD Data\ctd-07111.cnv
# filter_low_pass_tc_A = 1.000
# filter_low_pass_tc_B = 0.150
# filter_low_pass_A_vars = prdM
# filter_low_pass_B_vars =
# loopedit_date = Oct 15 2007 15:06:51, 5.37e
# loopedit_in = I:\Willette\OTF\CTD\2007\CTD Data\ctd-07111.cnv
# loopedit_minVelocity = 0.250                                                                                            
# loopedit_surfaceSoak: minDepth = 5.0, maxDepth = 20, useDeckPress = 1                                                   
# loopedit_excl_bad_scans = yes
# alignctd_date = Oct 15 2007 15:14:18, 5.37e
# alignctd_in = I:\Willette\OTF\CTD\2007\CTD Data\ctd-07111.cnv
# alignctd_adv = tv290C 0.500, sbeox0Mg/L 4.000, sbeox0PS 4.000                                                                                                                                                                      
# binavg_date = Oct 15 2007 15:18:47, 5.37e
# binavg_in = I:\Willette\OTF\CTD\2007\CTD Data\ctd-07111.cnv
# binavg_bintype = meters
# binavg_binsize = 1
# binavg_excl_bad_scans = yes
# binavg_skipover = 0
# binavg_surface_bin = no, min = 0.000, max = 0.000, value = 0.000
# file_type = ascii
*END*
      5.000    10.3042    30.1251    8.38755   90.57067    23.0952 3.0468e+01      4.773     1.6472 0.0000e+00
      6.000    10.2802    30.1467    8.38178   90.50528    23.1187 2.1236e+01      6.143     1.5930 0.0000e+00
      7.000    10.2573    30.1264    8.40774   90.78805    23.1053 1.5468e+01      7.036     1.5374 0.0000e+00
      8.000    10.2476    30.1436    8.47915   91.56201    23.1221 1.1333e+01      7.978     1.1601 0.0000e+00
      9.000    10.2477    30.1465    8.39572   90.67748    23.1248 8.7113e+00      9.267     0.9568 0.0000e+00
     10.000    10.2477    30.1469    8.48933   91.69684    23.1252 6.9711e+00      9.989     0.9411 0.0000e+00
     11.000    10.2495    30.1504    8.66092   93.50331    23.1276 5.3926e+00     11.133     0.9515 0.0000e+00
     12.000    10.2540    30.1558    8.66854   93.51286    23.1313 4.2989e+00     12.311     0.9437 0.0000e+00
     13.000    10.2550    30.1649    8.70370   93.83177    23.1379 3.6213e+00     13.221     0.9605 0.0000e+00
     14.000    10.2302    30.1831    8.74101   94.21598    23.1529 3.1171e+00     14.042     0.9651 0.0000e+00
     15.000    10.2083    30.2247    8.76717   94.47001    23.1907 2.6958e+00     15.125     0.9633 0.0000e+00
     16.000    10.1674    30.2397    8.83678   95.18174    23.2059 2.3957e+00     16.209     0.9600 0.0000e+00
     17.000    10.1352    30.2707    8.86765   95.49284    23.2375 2.1619e+00     17.153     0.9491 0.0000e+00
     18.000    10.1216    30.2894    8.80340   94.77313    23.2560 1.9880e+00     18.271     0.9274 0.0000e+00
     19.000    10.1084    30.2908    8.68178   93.44199    23.2583 1.8828e+00     19.198     0.9067 0.0000e+00
     20.000    10.0919    30.2984    8.67164   93.31044    23.2665 1.8025e+00     20.013     0.9142 0.0000e+00
     21.000    10.0718    30.3217    8.69550   93.53429    23.2884 1.7345e+00     21.013     0.9134 0.0000e+00
     22.000    10.0523    30.3327    8.65587   93.05512    23.3006 1.6821e+00     22.300     0.9214 0.0000e+00
     23.000    10.0322    30.3407    8.71965   93.71254    23.3097 1.6491e+00     23.170     0.9283 0.0000e+00
     24.000    10.0062    30.3535    8.78670   94.37134    23.3236 1.6238e+00     24.334     0.9381 0.0000e+00
     25.000     9.9868    30.3637    8.87835   95.31766    23.3350 1.6064e+00     25.257     0.9360 0.0000e+00
     26.000     9.9681    30.3769    8.86464   95.13288    23.3485 1.5909e+00     26.364     0.9421 0.0000e+00
     27.000     9.9490    30.3788    8.87186   95.16883    23.3522 1.5812e+00     27.397     0.9730 0.0000e+00
     28.000     9.9253    30.3860    8.92825   95.74456    23.3610 1.5741e+00     28.179     0.9311 0.0000e+00
     29.000     9.9069    30.4086    8.92021   95.57600    23.3829 1.5679e+00     29.277     0.9356 0.0000e+00
     30.000     9.8905    30.4089    8.97255   96.11230    23.3855 1.5638e+00     30.396     0.9501 0.0000e+00
     31.000     9.8725    30.4145    8.94945   95.82472    23.3924 1.5611e+00     31.227     0.9440 0.0000e+00
     32.000     9.8393    30.4309    8.89449   95.12147    23.4091 1.5586e+00     32.335     0.9381 0.0000e+00
     33.000     9.7971    30.4582    8.95716   95.72039    23.4368 1.5570e+00     33.255     0.9154 0.0000e+00
     34.000     9.7777    30.5080    9.06566   96.84094    23.4811 1.5551e+00     34.297     0.9269 0.0000e+00
     35.000     9.7229    30.5323    9.17029   97.94287    23.5037 1.5536e+00     35.551     0.9645 0.0000e+00
     36.000     9.6770    30.5782    9.20142   98.27041    23.5481 1.5537e+00     36.309     0.9609 0.0000e+00
     37.000     9.6369    30.6146    9.23648   98.63963    23.5844 1.5531e+00     37.299     0.9374 0.0000e+00
     38.000     9.6184    30.6412    9.25749   98.85704    23.6105 1.5524e+00     38.355     0.9875 0.0000e+00
     39.000     9.6119    30.6485    9.28045   99.03837    23.6179 1.5522e+00     39.413     0.9830 0.0000e+00
     40.000     9.6081    30.6513    9.29841   99.18541    23.6208 1.5520e+00     40.303     0.9934 0.0000e+00
     41.000     9.6048    30.6547    9.31595   99.36779    23.6240 1.5520e+00     41.411     1.0034 0.0000e+00
     42.000     9.6001    30.6554    9.33008   99.50049    23.6249 1.5516e+00     42.530     1.0204 0.0000e+00
     43.000     9.5628    30.6633    9.33428   99.49184    23.6331 1.5516e+00     43.391     1.0305 0.0000e+00
     44.000     9.5400    30.6943    9.34135   99.54554    23.6634 1.5514e+00     44.304     1.0253 0.0000e+00
     45.000     9.5371    30.7072    9.35278   99.64012    23.6759 1.5510e+00     45.311     1.0335 0.0000e+00
     46.000     9.5175    30.7083    9.36360   99.74180    23.6775 1.5482e+00     46.521     1.0363 0.0000e+00
     47.000     9.4881    30.7329    9.36718   99.76806    23.7019 1.5446e+00     47.542     1.0362 0.0000e+00
     48.000     9.4770    30.7426    9.37346   99.82271    23.7116 1.5432e+00     48.372     1.0339 0.0000e+00
     49.000     9.4649    30.7549    9.38324   99.90708    23.7238 1.5496e+00     49.387     1.0374 0.0000e+00
     50.000     9.4581    30.7602    9.39566  100.03231    23.7292 1.5508e+00     50.665     1.1023 0.0000e+00
     51.000     9.4517    30.7624    9.40042  100.08330    23.7315 1.5513e+00     51.473     1.0617 0.0000e+00
     52.000     9.4435    30.7679    9.40480  100.13064    23.7371 1.5510e+00     52.373     1.0553 0.0000e+00
     53.000     9.4333    30.7772    9.41476  100.23712    23.7464 1.5507e+00     53.477     1.0703 0.0000e+00
     54.000     9.4328    30.7799    9.45427  100.65578    23.7490 1.5507e+00     54.588     1.0732 0.0000e+00
     55.000     9.4330    30.7799    9.44062  100.51248    23.7489 1.5510e+00     55.537     1.0807 0.0000e+00
     56.000     9.4334    30.7794    9.43721  100.47962    23.7485 1.5509e+00     56.327     1.0632 0.0000e+00
     57.000     9.4329    30.7788    9.43705  100.47584    23.7481 1.5439e+00     57.272     1.0842 0.0000e+00
     58.000     9.4328    30.7815    9.45552  100.66366    23.7504 1.5873e+00     58.275     1.1023 0.0000e+00
     57.000     9.4330    30.7798    9.45541  100.66966    23.7489 1.5583e+00     57.445     1.0827 0.0000e+00
     56.000     9.4330    30.7793    9.46201  100.73805    23.7485 1.5501e+00     56.472     1.0928 0.0000e+00
     55.000     9.4339    30.7792    9.45755  100.69156    23.7483 1.5499e+00     55.627     1.0678 0.0000e+00
     54.000     9.4326    30.7792    9.46362  100.75803    23.7485 1.5506e+00     54.529     1.1122 0.0000e+00
     53.000     9.4332    30.7786    9.46631  100.79774    23.7479 1.5501e+00     53.452     1.1089 0.0000e+00
     52.000     9.4349    30.7778    9.46860  100.83562    23.7471 1.5502e+00     52.535     1.1205 0.0000e+00
     51.000     9.4423    30.7739    9.46991  100.86629    23.7431 1.5499e+00     51.483     1.1188 0.0000e+00
     50.000     9.4503    30.7680    9.46849  100.86733    23.7373 1.5501e+00     50.293     1.0945 0.0000e+00
     49.000     9.4572    30.7628    9.47292  100.93429    23.7321 1.5501e+00     49.543     1.1507 0.0000e+00
     48.000     9.4667    30.7576    9.47518  100.97916    23.7268 1.5498e+00     48.427     1.2414 0.0000e+00
     47.000     9.4807    30.7485    9.47185  100.95835    23.7176 1.5498e+00     47.422     1.3182 0.0000e+00
     46.000     9.4878    30.7410    9.46792  100.94531    23.7103 1.5500e+00     46.521     1.3152 0.0000e+00
     45.000     9.4988    30.7341    9.46297  100.97158    23.7034 1.5498e+00     45.327     1.3314 0.0000e+00
     44.000     9.5164    30.7247    9.46339  101.01800    23.6939 1.5508e+00     44.457     1.2456 0.0000e+00
     43.000     9.5554    30.6971    9.45850  101.00468    23.6667 1.5507e+00     43.373     1.2329 0.0000e+00
     42.000     9.5844    30.6736    9.45828  101.00914    23.6436 1.5502e+00     42.405     1.1818 0.0000e+00
     41.000     9.6025    30.6527    9.43954  100.81377    23.6230 1.5496e+00     41.320     1.1636 0.0000e+00
     40.000     9.6071    30.6506    9.44101  100.83599    23.6209 1.5499e+00     40.381     1.1629 0.0000e+00
     39.000     9.6096    30.6487    9.44326  100.86291    23.6189 1.5502e+00     39.347     1.1435 0.0000e+00
     38.000     9.6133    30.6461    9.45067  100.95688    23.6163 1.5505e+00     38.392     1.1381 0.0000e+00
     37.000     9.6148    30.6450    9.44507  100.94204    23.6151 1.5508e+00     37.381     1.1226 0.0000e+00
     36.000     9.6244    30.6403    9.45013  101.06837    23.6106 1.5514e+00     36.332     1.1357 0.0000e+00
     35.000     9.6505    30.6219    9.45500  101.18542    23.5929 1.5517e+00     35.386     1.1021 0.0000e+00
     34.000     9.6994    30.5821    9.45608  101.25892    23.5549 1.5526e+00     34.295     1.0872 0.0000e+00
     33.000     9.7423    30.5288    9.45146  101.28839    23.5057 1.5538e+00     33.310     1.0900 0.0000e+00
     32.000     9.7796    30.4876    9.44597  101.31187    23.4681 1.5560e+00     32.305     1.0821 0.0000e+00
     31.000     9.8269    30.4476    9.42617  101.13683    23.4297 1.5576e+00     31.278     1.0207 0.0000e+00
     30.000     9.8719    30.4151    9.41708  101.10057    23.3961 1.5612e+00     30.251     1.0268 0.0000e+00
     29.000     9.8877    30.4109    9.41115  101.06252    23.3907 1.5654e+00     29.354     1.0259 0.0000e+00
     28.000     9.9171    30.3941    9.41759  101.16948    23.3720 1.5709e+00     28.245     1.0176 0.0000e+00
     27.000     9.9341    30.3878    9.40481  101.07322    23.3647 1.5794e+00     27.263     1.0109 0.0000e+00
     26.000     9.9507    30.3766    9.38919  100.93951    23.3529 1.5898e+00     26.187     1.0004 0.0000e+00
     25.000     9.9685    30.3691    9.38374  100.90934    23.3445 1.6031e+00     25.309     1.0352 0.0000e+00
     24.000     9.9894    30.3564    9.38557  101.04156    23.3308 1.6238e+00     24.211     1.0246 0.0000e+00
     23.000    10.0126    30.3515    9.37842  100.99110    23.3249 1.6518e+00     23.175     1.0389 0.0000e+00
     22.000    10.0648    30.3223    9.38355  101.05892    23.2935 1.6857e+00     22.196     1.0242 0.0000e+00
     21.000    10.0747    30.3072    9.38184  101.04453    23.2783 1.7311e+00     21.298     1.0190 0.0000e+00
     20.000    10.0865    30.3034    9.36973  100.95093    23.2736 1.8060e+00     20.127     1.0747 0.0000e+00
     19.000    10.0895    30.3013    9.36823  100.98256    23.2715 1.9008e+00     19.187     1.0634 0.0000e+00
     18.000    10.1008    30.2961    9.36934  101.00607    23.2659 2.0071e+00     18.159     1.1176 0.0000e+00
     17.000    10.1288    30.2867    9.36246  100.99598    23.2544 2.1940e+00     17.157     1.2247 0.0000e+00
     16.000    10.1378    30.2786    9.35568  100.98837    23.2461 2.4388e+00     16.153     1.3825 0.0000e+00
     15.000    10.1625    30.2708    9.33767  100.80480    23.2375 2.7074e+00     15.178     1.4507 0.0000e+00
     14.000    10.2096    30.2281    9.32531  100.69896    23.1960 3.1714e+00     14.124     1.4579 0.0000e+00
     13.000    10.2240    30.2064    9.32413  100.68863    23.1763 3.7950e+00     13.131     1.4258 0.0000e+00
     12.000    10.2431    30.1767    9.31672  100.60782    23.1498 4.5614e+00     12.124     1.3607 0.0000e+00
     11.000    10.2490    30.1570    9.30445  100.47273    23.1329 5.7486e+00     11.122     1.3644 0.0000e+00
     10.000    10.2502    30.1482    9.30662  100.49297    23.1256 7.3153e+00     10.080     1.3138 0.0000e+00
      9.000    10.2498    30.1454    9.31262  100.54222    23.1235 9.4117e+00      9.124     1.2503 0.0000e+00
      8.000    10.2494    30.1433    9.31217  100.51890    23.1220 1.2485e+01      8.022     1.2649 0.0000e+00
      7.000    10.2436    30.1353    9.30058  100.42320    23.1164 1.6668e+01      7.063     1.1837 0.0000e+00
      6.000    10.2378    30.1300    9.29739  100.47836    23.1134 2.2776e+01      6.088     1.1697 0.0000e+00
      5.000    10.2498    30.1355    9.29567  100.53156    23.1170 3.2189e+01      4.998     1.1872 0.0000e+00
      4.000    10.2844    30.1430    9.28554  100.44402    23.1182 4.6740e+01      4.154     1.2144 0.0000e+00
      3.000    10.3309    30.1358    9.29073  100.51220    23.1031 6.4383e+01      2.848     1.2467 0.0000e+00
      2.000    10.3331    30.1354    9.23992   99.96063    23.1029 9.0187e+01      2.073     1.2806 0.0000e+00
      1.000    10.3380    30.1288    9.13197   98.77411    23.0962 1.7340e+02      1.052     1.3197 0.0000e+00
