* Sea-Bird SBE19plus Data File:
* FileName = C:\data\otf\2007\ctd-07089.hex
* Software Version 1.55
* Temperature SN =  5061
* Conductivity SN =  5061
* System UpLoad Time = Aug 15 2007 16:24:24
* ds
* SeacatPlus V 1.6a  SERIAL NO. 5061    15 Aug 2007  15:31:53
* vbatt = 10.9, vlith =  8.7, ioper =  61.6 ma, ipump =  57.5 ma, 
* iext01 =  95.2 ma
* iext23 =  58.1 ma
* 
* status = not logging
* number of scans to average = 1
* samples = 153039, free = 288466, casts = 154
* mode = profile, minimum cond freq = 3000, pump delay = 60 sec
* autorun = no, ignore magnetic switch = no
* battery type = alkaline, battery cutoff =  7.3 volts
* pressure sensor = strain gauge, range = 870.0
* SBE 38 = no, Gas Tension Device = no
* Ext Volt 0 = yes, Ext Volt 1 = yes, Ext Volt 2 = yes, Ext Volt 3 = yes
* echo commands = yes
* output format = raw HEX
* S>
* 
* SeacatPlus V 1.6a  SERIAL NO. 5061    15 Aug 2007  15:32:18
* temperature:  05-oct-06
*     TA0 = 1.254184e-03
*     TA1 = 2.596730e-04
*     TA2 = 5.165612e-07
*     TA3 = 1.318931e-07
*     TOFFSET = 0.000000e+00
* conductivity:  05-oct-06
*     G = -9.978144e-01
*     H = 1.555200e-01
*     I = -4.839108e-04
*     J = 6.121100e-05
*     CF0 = 2.539936e+03
*     CPCOR = -9.570000e-08
*     CTCOR = 3.250000e-06
*     CSLOPE = 1.000000e+00
* pressure S/N = 2362539, range = 870 psia:  24-aug-06
*     PA0 = 2.171091e-01
*     PA1 = 2.647085e-03
*     PA2 = 1.419397e-11
*     PTCA0 = 5.242437e+05
*     PTCA1 = 7.545345e+00
*     PTCA2 = -1.835354e-01
*     PTCB0 = 2.537125e+01
*     PTCB1 = -1.750000e-03
*     PTCB2 = 0.000000e+00
*     PTEMPA0 = -5.753989e+01
*     PTEMPA1 = 5.235813e+01
*     PTEMPA2 = -4.015521e-02
*     POFFSET = 0.000000e+00
* volt 0: offset = -4.682842e-02, slope = 1.249147e+00
* volt 1: offset = -4.695158e-02, slope = 1.248145e+00
* volt 2: offset = -4.685263e-02, slope = 1.248783e+00
* volt 3: offset = -4.690316e-02, slope = 1.249508e+00
*     EXTFREQSF = 1.000002e+00
* dh
* cast  89 18 Jul 2007 06:44:47 samples 55815 to 56080, avg = 4, stop = mag switch
* S> 
# nquan = 10
# nvalues = 114                         
# units = specified
# name 0 = depSM: Depth [salt water, m]
# name 1 = tv290C: Temperature [ITS-90, deg C]
# name 2 = sal00: Salinity [PSU]
# name 3 = sbeox0Mg/L: Oxygen, SBE 43 [mg/l]
# name 4 = sbeox0PS: Oxygen, SBE 43 [% saturation]
# name 5 = sigma-t00: Density [sigma-t, Kg/m^3 ]
# name 6 = par: PAR/Irradiance, Biospherical/Licor
# name 7 = prdM: Pressure, Strain Gauge [db]
# name 8 = flECO-AFL: Fluorescence, Wetlab ECO-AFL/FL [mg/m^3]
# name 9 = flag: flag
# span 0 =      1.000,     59.000       
# span 1 =     9.2281,     9.7950       
# span 2 =    30.3321,    30.8759       
# span 3 =    8.94741,   10.32348       
# span 4 =   95.20634,  102.19457       
# span 5 =    23.3428,    23.8549       
# span 6 = 1.5431e+00, 5.2316e+01       
# span 7 =      1.816,     61.185       
# span 8 =     0.6643,     1.7354       
# span 9 = 0.0000e+00, 0.0000e+00       
# interval = meters: 1                  
# start_time = Jul 18 2007 06:44:47
# bad_flag = -9.990e-29
# sensor 0 = Frequency 0  temperature, 5061, 05-Oct-06
# sensor 1 = Frequency 1  conductivity, 5061, 05-Oct-06, cpcor = -9.5700e-08
# sensor 2 = Pressure Number
# sensor 3 = Extrnl Volt  0  irradiance (PAR), primary, 4751, 08/10/06
# sensor 4 = Extrnl Volt  1  Oxygen, SBE, primary, 1081, 10/24/06
# sensor 5 = Extrnl Volt  2  WET Labs, ECO_AFL
# sensor 6 = Extrnl Volt  3  userpoly 0, 0627, 10/11/06
# datcnv_date = Oct 15 2007 14:49:46, 5.37e
# datcnv_in = I:\bob d\OTF_GEM\2007\ctd-07089.hex I:\Willette\OTF\CTD\5061.con
# datcnv_skipover = 0
# filter_date = Oct 15 2007 15:02:27, 5.37e
# filter_in = I:\Willette\OTF\CTD\2007\CTD Data\ctd-07089.cnv
# filter_low_pass_tc_A = 1.000
# filter_low_pass_tc_B = 0.150
# filter_low_pass_A_vars = prdM
# filter_low_pass_B_vars =
# loopedit_date = Oct 15 2007 15:06:49, 5.37e
# loopedit_in = I:\Willette\OTF\CTD\2007\CTD Data\ctd-07089.cnv
# loopedit_minVelocity = 0.250                                                                                            
# loopedit_surfaceSoak: minDepth = 5.0, maxDepth = 20, useDeckPress = 1                                                   
# loopedit_excl_bad_scans = yes
# alignctd_date = Oct 15 2007 15:14:16, 5.37e
# alignctd_in = I:\Willette\OTF\CTD\2007\CTD Data\ctd-07089.cnv
# alignctd_adv = tv290C 0.500, sbeox0Mg/L 4.000, sbeox0PS 4.000                                                                                                                                                                      
# binavg_date = Oct 15 2007 15:18:45, 5.37e
# binavg_in = I:\Willette\OTF\CTD\2007\CTD Data\ctd-07089.cnv
# binavg_bintype = meters
# binavg_binsize = 1
# binavg_excl_bad_scans = yes
# binavg_skipover = 0
# binavg_surface_bin = no, min = 0.000, max = 0.000, value = 0.000
# file_type = ascii
*END*
      4.000     9.7886    30.3538    9.03877   96.28613    23.3591 1.0491e+01      4.748     0.7093 0.0000e+00
      5.000     9.7739    30.3586    9.11105   97.02470    23.3635 7.2682e+00      5.715     0.6925 0.0000e+00
      6.000     9.7563    30.3739    8.95868   95.37168    23.3777 5.2564e+00      6.621     0.6824 0.0000e+00
      7.000     9.7157    30.3785    8.94741   95.20634    23.3826 3.8970e+00      7.816     0.6643 0.0000e+00
      8.000     9.6980    30.3943    9.01574   95.93137    23.3983 3.0455e+00      8.514     0.6705 0.0000e+00
      9.000     9.6582    30.4284    9.02192   95.96457    23.4301 2.5636e+00      9.523     0.6664 0.0000e+00
     10.000     9.6137    30.4598    9.11085   96.89764    23.4600 2.2362e+00     10.551     0.6752 0.0000e+00
     11.000     9.5742    30.4887    9.11730   96.95996    23.4880 2.0095e+00     11.650     0.6751 0.0000e+00
     12.000     9.5610    30.5205    9.02328   95.94746    23.5189 1.8676e+00     12.510     0.6893 0.0000e+00
     13.000     9.5493    30.5455    9.01294   95.82280    23.5426 1.7677e+00     13.297     0.7007 0.0000e+00
     14.000     9.5420    30.5641    9.08734   96.60232    23.5600 1.6943e+00     14.239     0.7018 0.0000e+00
     15.000     9.5334    30.5779    9.20898   97.87930    23.5729 1.6481e+00     15.201     0.7010 0.0000e+00
     16.000     9.5081    30.5873    9.31377   98.98616    23.5815 1.6165e+00     16.286     0.7258 0.0000e+00
     17.000     9.4854    30.5951    9.37894   99.66338    23.5892 1.5967e+00     17.308     0.7473 0.0000e+00
     18.000     9.4781    30.6141    9.41629  100.04832    23.6071 1.5835e+00     18.116     0.7498 0.0000e+00
     19.000     9.4665    30.6395    9.44444  100.34283    23.6301 1.5730e+00     18.993     0.7498 0.0000e+00
     20.000     9.4401    30.6615    9.47477  100.66822    23.6497 1.5650e+00     20.312     0.7715 0.0000e+00
     21.000     9.4313    30.6685    9.48912  100.81933    23.6573 1.5611e+00     21.198     0.7885 0.0000e+00
     22.000     9.4172    30.6899    9.50139  100.94846    23.6769 1.5580e+00     22.100     0.7742 0.0000e+00
     23.000     9.4015    30.7053    9.51268  101.06647    23.6910 1.5558e+00     23.184     0.8066 0.0000e+00
     24.000     9.3935    30.7225    9.52301  101.17210    23.7069 1.5542e+00     24.153     0.8346 0.0000e+00
     25.000     9.3898    30.7342    9.52999  101.24509    23.7179 1.5535e+00     24.980     0.8302 0.0000e+00
     26.000     9.3835    30.7466    9.53787  101.31197    23.7289 1.5530e+00     25.875     0.8239 0.0000e+00
     27.000     9.3738    30.7578    9.54768  101.38219    23.7385 1.5523e+00     27.036     0.8547 0.0000e+00
     28.000     9.3661    30.7646    9.55625  101.46455    23.7452 1.5517e+00     28.102     0.9040 0.0000e+00
     29.000     9.3516    30.7612    9.56212  101.52411    23.7439 1.5512e+00     29.085     0.8732 0.0000e+00
     30.000     9.3526    30.7689    9.57343  101.62011    23.7507 1.5510e+00     29.839     0.8897 0.0000e+00
     31.000     9.3335    30.7873    9.57712  101.63821    23.7675 1.5514e+00     31.347     0.8686 0.0000e+00
     32.000     9.3329    30.7971    9.58318  101.69782    23.7765 1.5513e+00     32.193     0.9039 0.0000e+00
     33.000     9.3349    30.8091    9.59617  101.83120    23.7877 1.5510e+00     33.502     0.9879 0.0000e+00
     34.000     9.3323    30.8062    9.60348  101.90906    23.7852 1.5509e+00     34.563     0.8939 0.0000e+00
     35.000     9.3321    30.8043    9.60845  101.95119    23.7832 1.5510e+00     35.369     0.9388 0.0000e+00
     36.000     9.3296    30.8067    9.61497  102.01894    23.7855 1.5512e+00     36.362     0.9164 0.0000e+00
     37.000     9.3284    30.8077    9.61740  102.03053    23.7865 1.5507e+00     37.498     0.9206 0.0000e+00
     38.000     9.3144    30.8104    9.62167  102.07253    23.7890 1.5509e+00     38.432     0.9207 0.0000e+00
     39.000     9.2981    30.8101    9.61839  102.03686    23.7888 1.5503e+00     39.340     0.9570 0.0000e+00
     40.000     9.2941    30.8232    9.61192  101.94790    23.8020 1.5507e+00     40.506     0.9758 0.0000e+00
     41.000     9.2939    30.8358    9.62135  102.05210    23.8140 1.5505e+00     41.292     0.9701 0.0000e+00
     42.000     9.2792    30.8361    9.62062  102.04329    23.8143 1.5506e+00     42.134     0.9695 0.0000e+00
     43.000     9.2712    30.8394    9.62710  102.10591    23.8180 1.5504e+00     43.298     0.9813 0.0000e+00
     44.000     9.2668    30.8474    9.63363  102.17165    23.8260 1.5502e+00     44.412     1.0078 0.0000e+00
     45.000     9.2642    30.8543    9.63146  102.15075    23.8329 1.5506e+00     45.757     1.0532 0.0000e+00
     46.000     9.2646    30.8543    9.63277  102.16504    23.8329 1.5502e+00     46.344     1.0420 0.0000e+00
     47.000     9.2606    30.8552    9.62821  102.11661    23.8339 1.5505e+00     47.449     1.0584 0.0000e+00
     48.000     9.2579    30.8575    9.62687  102.10022    23.8362 1.5499e+00     48.665     1.0671 0.0000e+00
     49.000     9.2527    30.8586    9.62592  102.08860    23.8373 1.5446e+00     49.500     1.0526 0.0000e+00
     50.000     9.2490    30.8592    9.61903  102.01494    23.8380 1.5431e+00     50.380     1.0499 0.0000e+00
     51.000     9.2484    30.8638    9.61723  101.99578    23.8426 1.5482e+00     51.413     1.0984 0.0000e+00
     52.000     9.2414    30.8662    9.60978  101.91740    23.8449 1.5504e+00     52.286     1.1222 0.0000e+00
     53.000     9.2395    30.8656    9.60667  101.88425    23.8446 1.5503e+00     53.045     1.1241 0.0000e+00
     54.000     9.2390    30.8691    9.61271  101.94809    23.8480 1.5500e+00     53.772     1.1425 0.0000e+00
     55.000     9.2378    30.8725    9.62006  102.02753    23.8513 1.5499e+00     54.881     1.1901 0.0000e+00
     56.000     9.2335    30.8728    9.62152  102.04306    23.8516 1.5479e+00     55.609     1.2047 0.0000e+00
     57.000     9.2334    30.8727    9.62107  102.03735    23.8517 1.5489e+00     56.170     1.1874 0.0000e+00
     58.000     9.2340    30.8746    9.61677  101.99222    23.8535 1.5492e+00     57.362     1.2757 0.0000e+00
     59.000     9.2281    30.8687    9.58823  101.69975    23.8496 1.5533e+00     61.185     1.2695 0.0000e+00
     58.000     9.2346    30.8743    9.61725  102.01259    23.8534 1.5495e+00     58.165     1.4401 0.0000e+00
     57.000     9.2321    30.8746    9.62397  102.11205    23.8537 1.5487e+00     56.897     1.7354 0.0000e+00
     56.000     9.2343    30.8759    9.62495  102.12670    23.8549 1.5482e+00     56.028     1.7110 0.0000e+00
     55.000     9.2368    30.8753    9.61589  102.02971    23.8543 1.5484e+00     55.275     1.5235 0.0000e+00
     54.000     9.2405    30.8732    9.61840  102.05742    23.8522 1.5490e+00     54.304     1.4418 0.0000e+00
     53.000     9.2473    30.8717    9.61584  102.03964    23.8506 1.5485e+00     53.436     1.2692 0.0000e+00
     52.000     9.2506    30.8665    9.62322  102.13227    23.8454 1.5490e+00     52.403     1.2216 0.0000e+00
     51.000     9.2532    30.8649    9.62278  102.13385    23.8438 1.5495e+00     51.537     1.2570 0.0000e+00
     50.000     9.2588    30.8617    9.62287  102.12550    23.8406 1.5515e+00     50.319     1.1581 0.0000e+00
     49.000     9.2587    30.8595    9.62286  102.14095    23.8383 1.5498e+00     49.534     1.1609 0.0000e+00
     48.000     9.2591    30.8586    9.61554  102.07717    23.8375 1.5490e+00     48.210     1.1327 0.0000e+00
     47.000     9.2594    30.8585    9.61844  102.10878    23.8374 1.5441e+00     47.465     1.1235 0.0000e+00
     46.000     9.2646    30.8576    9.61659  102.10029    23.8365 1.5480e+00     46.532     1.0898 0.0000e+00
     45.000     9.2744    30.8540    9.61301  102.07617    23.8328 1.5471e+00     45.374     1.0468 0.0000e+00
     44.000     9.2744    30.8475    9.61106  102.05802    23.8263 1.5501e+00     44.302     1.0115 0.0000e+00
     43.000     9.2734    30.8475    9.61389  102.09483    23.8263 1.5482e+00     43.444     1.0488 0.0000e+00
     42.000     9.2812    30.8486    9.61733  102.16077    23.8274 1.5494e+00     42.390     0.9997 0.0000e+00
     41.000     9.2858    30.8430    9.61906  102.19457    23.8218 1.5498e+00     41.365     1.0849 0.0000e+00
     40.000     9.2858    30.8390    9.60531  102.05401    23.8178 1.5479e+00     40.091     0.9469 0.0000e+00
     39.000     9.2931    30.8391    9.61063  102.12504    23.8179 1.5493e+00     39.427     1.0257 0.0000e+00
     38.000     9.3001    30.8347    9.61400  102.16723    23.8134 1.5485e+00     38.450     1.0374 0.0000e+00
     37.000     9.3019    30.8293    9.60381  102.06340    23.8080 1.5487e+00     37.273     1.0246 0.0000e+00
     36.000     9.3059    30.8289    9.60294  102.05689    23.8076 1.5485e+00     36.367     1.0082 0.0000e+00
     35.000     9.3222    30.8256    9.60741  102.10513    23.8043 1.5481e+00     35.371     1.0691 0.0000e+00
     34.000     9.3320    30.8099    9.60289  102.07456    23.7893 1.5483e+00     34.253     1.0431 0.0000e+00
     33.000     9.3367    30.8043    9.59913  102.04606    23.7838 1.5482e+00     33.347     1.0016 0.0000e+00
     32.000     9.3446    30.7968    9.59454  101.99734    23.7770 1.5478e+00     32.112     0.9298 0.0000e+00
     31.000     9.3483    30.7920    9.59338  101.99026    23.7724 1.5479e+00     31.338     0.9473 0.0000e+00
     30.000     9.3510    30.7849    9.59332  102.00480    23.7659 1.5480e+00     30.167     0.9638 0.0000e+00
     29.000     9.3527    30.7829    9.59086  101.98823    23.7641 1.5481e+00     29.255     0.9557 0.0000e+00
     28.000     9.3533    30.7806    9.59060  102.02674    23.7619 1.5486e+00     28.183     0.9636 0.0000e+00
     27.000     9.3611    30.7802    9.58280  101.99693    23.7615 1.5488e+00     27.245     0.9821 0.0000e+00
     26.000     9.3736    30.7725    9.57353  101.93102    23.7548 1.5491e+00     26.276     1.0242 0.0000e+00
     25.000     9.3733    30.7544    9.56316  101.83463    23.7383 1.5476e+00     25.186     0.9626 0.0000e+00
     24.000     9.3738    30.7565    9.54557  101.65407    23.7400 1.5509e+00     24.300     0.9578 0.0000e+00
     23.000     9.3833    30.7546    9.54388  101.65621    23.7384 1.5526e+00     23.184     0.9621 0.0000e+00
     22.000     9.3907    30.7412    9.53988  101.67278    23.7266 1.5511e+00     22.250     0.9490 0.0000e+00
     21.000     9.4033    30.7276    9.52913  101.60161    23.7146 1.5510e+00     21.183     0.9473 0.0000e+00
     20.000     9.4371    30.7106    9.51992  101.51581    23.6993 1.5630e+00     20.253     0.8981 0.0000e+00
     19.000     9.4675    30.6744    9.51428  101.47140    23.6662 1.5680e+00     19.272     0.8798 0.0000e+00
     18.000     9.4828    30.6383    9.51360  101.48134    23.6327 1.5796e+00     18.155     0.8942 0.0000e+00
     17.000     9.4895    30.6234    9.50795  101.48355    23.6186 1.5915e+00     17.027     0.8351 0.0000e+00
     16.000     9.4986    30.6196    9.50091  101.44297    23.6151 1.6131e+00     16.153     0.8130 0.0000e+00
     15.000     9.5288    30.6134    9.49023  101.42354    23.6094 1.6448e+00     15.218     0.7967 0.0000e+00
     14.000     9.5649    30.5764    9.47482  101.29956    23.5751 1.6883e+00     14.106     0.8292 0.0000e+00
     13.000     9.5729    30.5419    9.46551  101.23814    23.5425 1.7612e+00     13.083     0.7527 0.0000e+00
     12.000     9.5812    30.5355    9.45284  101.13556    23.5363 1.8605e+00     12.075     0.8026 0.0000e+00
     11.000     9.5888    30.5285    9.43248  100.93070    23.5296 2.0213e+00     11.116     0.8165 0.0000e+00
     10.000     9.6141    30.5212    9.41833  100.79012    23.5226 2.2661e+00     10.015     0.7268 0.0000e+00
      9.000     9.6388    30.5027    9.42338  100.85398    23.5050 2.6356e+00      9.177     0.7194 0.0000e+00
      8.000     9.6896    30.4738    9.32715   99.81489    23.4773 3.2626e+00      8.012     0.7678 0.0000e+00
      7.000     9.7226    30.4337    9.20916   97.91268    23.4393 4.2169e+00      7.080     0.7151 0.0000e+00
      6.000     9.7453    30.4012   10.32348   96.28943    23.4083 5.7132e+00      6.115     0.7142 0.0000e+00
      5.000     9.7669    30.3800 -9.990e-29 -9.990e-29    23.3882 7.6533e+00      5.184     0.7203 0.0000e+00
      4.000     9.7783    30.3568 -9.990e-29 -9.990e-29    23.3662 1.1086e+01      4.184     0.7440 0.0000e+00
      3.000     9.7861    30.3470 -9.990e-29 -9.990e-29    23.3570 1.5803e+01      3.383     0.7384 0.0000e+00
      2.000     9.7935    30.3381 -9.990e-29 -9.990e-29    23.3484 2.3081e+01      2.457     0.7414 0.0000e+00
      1.000     9.7950    30.3321 -9.990e-29 -9.990e-29    23.3428 5.2316e+01      1.816     0.7340 0.0000e+00
