* Sea-Bird SBE19plus Data File:
* FileName = C:\data\otf\2007\ctd-07148.hex
* Software Version 1.55
* Temperature SN =  5061
* Conductivity SN =  5061
* System UpLoad Time = Aug 15 2007 17:41:07
* ds
* SeacatPlus V 1.6a  SERIAL NO. 5061    15 Aug 2007  15:31:53
* vbatt = 10.9, vlith =  8.7, ioper =  61.6 ma, ipump =  57.5 ma, 
* iext01 =  95.2 ma
* iext23 =  58.1 ma
* 
* status = not logging
* number of scans to average = 1
* samples = 153039, free = 288466, casts = 154
* mode = profile, minimum cond freq = 3000, pump delay = 60 sec
* autorun = no, ignore magnetic switch = no
* battery type = alkaline, battery cutoff =  7.3 volts
* pressure sensor = strain gauge, range = 870.0
* SBE 38 = no, Gas Tension Device = no
* Ext Volt 0 = yes, Ext Volt 1 = yes, Ext Volt 2 = yes, Ext Volt 3 = yes
* echo commands = yes
* output format = raw HEX
* S>
* 
* SeacatPlus V 1.6a  SERIAL NO. 5061    15 Aug 2007  15:32:18
* temperature:  05-oct-06
*     TA0 = 1.254184e-03
*     TA1 = 2.596730e-04
*     TA2 = 5.165612e-07
*     TA3 = 1.318931e-07
*     TOFFSET = 0.000000e+00
* conductivity:  05-oct-06
*     G = -9.978144e-01
*     H = 1.555200e-01
*     I = -4.839108e-04
*     J = 6.121100e-05
*     CF0 = 2.539936e+03
*     CPCOR = -9.570000e-08
*     CTCOR = 3.250000e-06
*     CSLOPE = 1.000000e+00
* pressure S/N = 2362539, range = 870 psia:  24-aug-06
*     PA0 = 2.171091e-01
*     PA1 = 2.647085e-03
*     PA2 = 1.419397e-11
*     PTCA0 = 5.242437e+05
*     PTCA1 = 7.545345e+00
*     PTCA2 = -1.835354e-01
*     PTCB0 = 2.537125e+01
*     PTCB1 = -1.750000e-03
*     PTCB2 = 0.000000e+00
*     PTEMPA0 = -5.753989e+01
*     PTEMPA1 = 5.235813e+01
*     PTEMPA2 = -4.015521e-02
*     POFFSET = 0.000000e+00
* volt 0: offset = -4.682842e-02, slope = 1.249147e+00
* volt 1: offset = -4.695158e-02, slope = 1.248145e+00
* volt 2: offset = -4.685263e-02, slope = 1.248783e+00
* volt 3: offset = -4.690316e-02, slope = 1.249508e+00
*     EXTFREQSF = 1.000002e+00
* dh
* cast 148 29 Jul 2007 09:16:34 samples 145745 to 147201, avg = 1, stop = mag switch
* S> 
# nquan = 10
# nvalues = 123                         
# units = specified
# name 0 = depSM: Depth [salt water, m]
# name 1 = tv290C: Temperature [ITS-90, deg C]
# name 2 = sal00: Salinity [PSU]
# name 3 = sbeox0Mg/L: Oxygen, SBE 43 [mg/l]
# name 4 = sbeox0PS: Oxygen, SBE 43 [% saturation]
# name 5 = sigma-t00: Density [sigma-t, Kg/m^3 ]
# name 6 = par: PAR/Irradiance, Biospherical/Licor
# name 7 = prdM: Pressure, Strain Gauge [db]
# name 8 = flECO-AFL: Fluorescence, Wetlab ECO-AFL/FL [mg/m^3]
# name 9 = flag: flag
# span 0 =      1.000,     63.982       
# span 1 =     8.4884,    10.8609       
# span 2 =    28.8572,    31.6471       
# span 3 =    8.32399,    9.26595       
# span 4 =   89.18331,   99.31758       
# span 5 =    22.0298,    24.5708       
# span 6 = 1.5468e+00, 2.3512e+02       
# span 7 =      1.080,     64.531       
# span 8 =     0.7108,     1.3362       
# span 9 = 0.0000e+00, 0.0000e+00       
# interval = meters: 1                  
# start_time = Jul 29 2007 09:16:34
# bad_flag = -9.990e-29
# sensor 0 = Frequency 0  temperature, 5061, 05-Oct-06
# sensor 1 = Frequency 1  conductivity, 5061, 05-Oct-06, cpcor = -9.5700e-08
# sensor 2 = Pressure Number
# sensor 3 = Extrnl Volt  0  irradiance (PAR), primary, 4751, 08/10/06
# sensor 4 = Extrnl Volt  1  Oxygen, SBE, primary, 1081, 10/24/06
# sensor 5 = Extrnl Volt  2  WET Labs, ECO_AFL
# sensor 6 = Extrnl Volt  3  userpoly 0, 0627, 10/11/06
# datcnv_date = Oct 15 2007 14:49:54, 5.37e
# datcnv_in = I:\bob d\OTF_GEM\2007\ctd-07148.hex I:\Willette\OTF\CTD\5061.con
# datcnv_skipover = 0
# filter_date = Oct 15 2007 15:02:44, 5.37e
# filter_in = I:\Willette\OTF\CTD\2007\CTD Data\ctd-07148.cnv
# filter_low_pass_tc_A = 1.000
# filter_low_pass_tc_B = 0.150
# filter_low_pass_A_vars = prdM
# filter_low_pass_B_vars =
# loopedit_date = Oct 15 2007 15:07:01, 5.37e
# loopedit_in = I:\Willette\OTF\CTD\2007\CTD Data\ctd-07148.cnv
# loopedit_minVelocity = 0.250                                                                                            
# loopedit_surfaceSoak: minDepth = 5.0, maxDepth = 20, useDeckPress = 1                                                   
# loopedit_excl_bad_scans = yes
# alignctd_date = Oct 15 2007 15:14:25, 5.37e
# alignctd_in = I:\Willette\OTF\CTD\2007\CTD Data\ctd-07148.cnv
# alignctd_adv = tv290C 0.500, sbeox0Mg/L 4.000, sbeox0PS 4.000                                                                                                                                                                      
# binavg_date = Oct 15 2007 15:18:54, 5.37e
# binavg_in = I:\Willette\OTF\CTD\2007\CTD Data\ctd-07148.cnv
# binavg_bintype = meters
# binavg_binsize = 1
# binavg_excl_bad_scans = yes
# binavg_skipover = 0
# binavg_surface_bin = no, min = 0.000, max = 0.000, value = 0.000
# file_type = ascii
*END*
      5.000    10.6634    29.0492    8.32399   89.38711    22.1946 1.1782e+02      5.064     1.0778 0.0000e+00
      6.000    10.5850    29.1466    8.43355   90.20543    22.2845 8.8770e+01      6.048     1.0334 0.0000e+00
      7.000    10.3792    29.3346    8.40540   89.60634    22.4556 6.2670e+01      7.111     0.9951 0.0000e+00
      8.000    10.0942    29.6045    8.47071   90.01105    22.7060 4.4629e+01      8.109     0.8910 0.0000e+00
      9.000     9.8477    29.9199    8.50982   90.20561    22.9935 3.2731e+01      9.007     0.8012 0.0000e+00
     10.000     9.6192    30.2543    8.52104   90.15374    23.2977 2.4494e+01     10.136     0.7617 0.0000e+00
     11.000     9.3931    30.5091    8.48217   89.65447    23.5284 1.9305e+01     11.094     0.7428 0.0000e+00
     12.000     9.1884    30.7882    8.49333   89.66770    23.7795 1.5210e+01     12.098     0.7749 0.0000e+00
     13.000     9.0832    30.9979    8.51468   89.74223    23.9689 1.2689e+01     13.106     0.8056 0.0000e+00
     14.000     9.0060    31.0785    8.54037   89.95374    24.0429 1.0730e+01     14.140     0.8456 0.0000e+00
     15.000     8.9033    31.2011    8.60916   90.67757    24.1522 9.0914e+00     15.136     0.8931 0.0000e+00
     16.000     8.8039    31.3541    8.64067   91.00245    24.2901 7.8458e+00     16.168     0.9576 0.0000e+00
     17.000     8.7787    31.3958    8.55136   90.01240    24.3302 6.8709e+00     17.243     0.9480 0.0000e+00
     18.000     8.7750    31.3894    8.60933   90.59632    24.3260 6.0749e+00     18.108     0.9585 0.0000e+00
     19.000     8.7698    31.4283    8.67843   91.31079    24.3570 5.3499e+00     19.199     0.9423 0.0000e+00
     20.000     8.7427    31.4204    8.72919   91.81508    24.3531 4.7892e+00     20.202     0.9678 0.0000e+00
     21.000     8.7243    31.4515    8.72229   91.70271    24.3819 4.2853e+00     21.202     0.9856 0.0000e+00
     22.000     8.7169    31.4499    8.65809   90.99402    24.3814 3.8661e+00     22.199     0.9736 0.0000e+00
     23.000     8.6948    31.4686    8.68667   91.28084    24.3983 3.5161e+00     23.171     0.9744 0.0000e+00
     24.000     8.6605    31.5282    8.62521   90.63091    24.4507 3.2070e+00     24.250     1.0109 0.0000e+00
     25.000     8.6456    31.5230    8.49155   89.18331    24.4490 2.9642e+00     25.262     1.0444 0.0000e+00
     26.000     8.6257    31.5523    8.60764   90.38565    24.4751 2.7517e+00     26.145     1.0456 0.0000e+00
     27.000     8.6232    31.5899    8.82264   92.65522    24.5061 2.5655e+00     27.314     1.0839 0.0000e+00
     28.000     8.6143    31.5325    8.91604   93.62587    24.4613 2.4194e+00     28.273     1.0452 0.0000e+00
     29.000     8.6085    31.5254    8.96763   94.15119    24.4576 2.2882e+00     29.231     1.0577 0.0000e+00
     30.000     8.6186    31.5144    9.00392   94.52537    24.4478 2.1784e+00     30.280     1.0371 0.0000e+00
     31.000     8.6029    31.5239    9.03345   94.83301    24.4562 2.0854e+00     31.301     1.0558 0.0000e+00
     32.000     8.5980    31.5340    9.04789   94.98191    24.4657 2.0027e+00     32.236     1.0640 0.0000e+00
     33.000     8.5945    31.5380    9.05861   95.08840    24.4695 1.9337e+00     33.311     1.0595 0.0000e+00
     34.000     8.5926    31.5394    9.07294   95.23607    24.4709 1.8783e+00     34.332     1.0537 0.0000e+00
     35.000     8.5891    31.5424    9.08641   95.37520    24.4736 1.8285e+00     35.305     1.0464 0.0000e+00
     36.000     8.5873    31.5446    9.09621   95.48008    24.4757 1.7873e+00     36.360     1.0262 0.0000e+00
     37.000     8.5853    31.5477    9.10632   95.59386    24.4786 1.7511e+00     37.345     1.0483 0.0000e+00
     38.000     8.5865    31.5459    9.11054   95.64330    24.4771 1.7207e+00     38.355     1.0620 0.0000e+00
     39.000     8.5911    31.5419    9.11703   95.71186    24.4735 1.6946e+00     39.360     1.0571 0.0000e+00
     40.000     8.5957    31.5355    9.12788   95.82451    24.4676 1.6727e+00     40.402     1.0297 0.0000e+00
     41.000     8.5959    31.5341    9.13730   95.91868    24.4663 1.6546e+00     41.370     1.0356 0.0000e+00
     42.000     8.5950    31.5357    9.14320   95.95061    24.4677 1.6379e+00     42.433     1.0325 0.0000e+00
     43.000     8.5922    31.5364    9.14193   95.92408    24.4684 1.6238e+00     43.404     1.0375 0.0000e+00
     44.000     8.5741    31.5520    9.14182   95.88863    24.4826 1.6123e+00     44.417     1.0416 0.0000e+00
     45.000     8.5638    31.5671    9.13623   95.81495    24.4967 1.6019e+00     45.406     1.0772 0.0000e+00
     46.000     8.5434    31.5835    9.13726   95.83019    24.5115 1.5930e+00     46.476     1.0906 0.0000e+00
     47.000     8.5325    31.6021    9.14876   95.95085    24.5288 1.5856e+00     47.427     1.0997 0.0000e+00
     48.000     8.5339    31.6006    9.14775   95.94490    24.5276 1.5792e+00     48.455     1.0867 0.0000e+00
     49.000     8.5339    31.6011    9.14680   95.95014    24.5281 1.5741e+00     49.465     1.0945 0.0000e+00
     50.000     8.5379    31.5980    9.15217   96.02498    24.5253 1.5695e+00     50.469     1.0983 0.0000e+00
     51.000     8.5477    31.5870    9.15895   96.10634    24.5151 1.5659e+00     51.516     1.0611 0.0000e+00
     52.000     8.5609    31.5762    9.16032   96.08854    24.5054 1.5628e+00     52.455     1.0662 0.0000e+00
     53.000     8.5660    31.5635    9.15643   96.01731    24.4933 1.5598e+00     53.546     1.0424 0.0000e+00
     54.000     8.5420    31.5861    9.15104   95.96946    24.5140 1.5574e+00     54.466     1.0574 0.0000e+00
     55.000     8.5272    31.6083    9.15085   95.97316    24.5346 1.5550e+00     55.511     1.0943 0.0000e+00
     56.000     8.5332    31.6024    9.15148   95.94766    24.5293 1.5535e+00     56.544     1.0880 0.0000e+00
     57.000     8.5240    31.6063    9.14935   95.90858    24.5328 1.5523e+00     57.527     1.0996 0.0000e+00
     58.000     8.5080    31.6251    9.15283   95.92859    24.5503 1.5509e+00     58.553     1.0990 0.0000e+00
     59.000     8.4954    31.6383    9.15122   95.90631    24.5626 1.5498e+00     59.538     1.1106 0.0000e+00
     60.000     8.4884    31.6471    9.14981   95.89347    24.5708 1.5489e+00     60.582     1.1398 0.0000e+00
     61.000     8.4902    31.6453    9.14757   95.87082    24.5691 1.5481e+00     61.579     1.1201 0.0000e+00
     62.000     8.4897    31.6456    9.15214   95.91857    24.5695 1.5474e+00     62.546     1.1388 0.0000e+00
     63.000 -9.990e-29 -9.990e-29 -9.990e-29 -9.990e-29 -9.990e-29 -9.990e-29 -9.990e-29 -9.990e-29 -9.990e-29
     64.000     8.4964    31.6389    9.16560   96.08524    24.5631 1.5468e+00     64.531     1.2882 0.0000e+00
     63.000     8.5047    31.6330    9.16799   96.10243    24.5576 1.5472e+00     63.619     1.3081 0.0000e+00
     62.000     8.5030    31.6324    9.16437   96.07738    24.5571 1.5477e+00     62.624     1.3216 0.0000e+00
     61.000     8.5118    31.6252    9.15884   96.02051    24.5506 1.5484e+00     61.592     1.3362 0.0000e+00
     60.000 -9.990e-29 -9.990e-29 -9.990e-29 -9.990e-29 -9.990e-29 -9.990e-29 -9.990e-29 -9.990e-29 -9.990e-29
     59.000 -9.990e-29 -9.990e-29 -9.990e-29 -9.990e-29 -9.990e-29 -9.990e-29 -9.990e-29 -9.990e-29 -9.990e-29
     58.000     8.5061    31.6299    9.17588   96.20809    24.5549 1.5515e+00     58.348     1.2998 0.0000e+00
     57.000     8.5169    31.6183    9.17637   96.21463    24.5442 1.5526e+00     57.520     1.3100 0.0000e+00
     56.000     8.5168    31.6173    9.17869   96.23973    24.5433 1.5540e+00     56.554     1.3219 0.0000e+00
     55.000     8.5185    31.6155    9.17470   96.19739    24.5416 1.5559e+00     55.446     1.3171 0.0000e+00
     54.000     8.5187    31.6156    9.17246   96.17345    24.5416 1.5578e+00     54.457     1.2883 0.0000e+00
     53.000     8.5182    31.6154    9.17167   96.16992    24.5415 1.5601e+00     53.530     1.2713 0.0000e+00
     52.000     8.5173    31.6165    9.17423   96.19536    24.5425 1.5636e+00     52.506     1.2469 0.0000e+00
     51.000     8.5207    31.6139    9.17728   96.22826    24.5402 1.5665e+00     51.497     1.2448 0.0000e+00
     50.000     8.5202    31.6130    9.16730   96.12510    24.5393 1.5712e+00     50.512     1.2449 0.0000e+00
     49.000     8.5207    31.6129    9.17252   96.18099    24.5392 1.5762e+00     49.508     1.2512 0.0000e+00
     48.000     8.5226    31.6108    9.16962   96.15575    24.5374 1.5822e+00     48.483     1.2466 0.0000e+00
     47.000     8.5244    31.6087    9.17722   96.24139    24.5355 1.5892e+00     47.466     1.2683 0.0000e+00
     46.000     8.5295    31.6033    9.17950   96.26054    24.5304 1.5977e+00     46.427     1.2525 0.0000e+00
     45.000     8.5284    31.6034    9.18110   96.29872    24.5305 1.6073e+00     45.460     1.2362 0.0000e+00
     44.000     8.5222    31.6112    9.18802   96.39476    24.5377 1.6198e+00     44.440     1.2751 0.0000e+00
     43.000 -9.990e-29 -9.990e-29 -9.990e-29 -9.990e-29 -9.990e-29 -9.990e-29 -9.990e-29 -9.990e-29 -9.990e-29
     42.000     8.5562    31.5746    9.18954   96.41458    24.5041 1.6526e+00     42.331     1.2175 0.0000e+00
     41.000     8.5608    31.5690    9.18207   96.34049    24.4988 1.6699e+00     41.361     1.1890 0.0000e+00
     40.000     8.5579    31.5726    9.17975   96.30008    24.5022 1.6913e+00     40.355     1.2023 0.0000e+00
     39.000     8.5620    31.5683    9.17942   96.28191    24.4982 1.7171e+00     39.363     1.1781 0.0000e+00
     38.000     8.5471    31.5775    9.18420   96.33412    24.5065 1.7449e+00     38.332     1.1800 0.0000e+00
     37.000     8.5421    31.5925    9.18059   96.30628    24.5207 1.7783e+00     37.362     1.1802 0.0000e+00
     36.000     8.5447    31.5785    9.18716   96.39019    24.5075 1.8181e+00     36.353     1.1412 0.0000e+00
     35.000     8.5481    31.5879    9.19114   96.45765    24.5166 1.8677e+00     35.386     1.1323 0.0000e+00
     34.000     8.5639    31.5681    9.19371   96.53120    24.4983 1.9274e+00     34.351     1.1201 0.0000e+00
     33.000     8.5998    31.5290    9.18887   96.48895    24.4626 2.0006e+00     33.313     1.1158 0.0000e+00
     32.000     8.6143    31.5091    9.18816   96.49928    24.4442 2.0778e+00     32.270     1.0557 0.0000e+00
     31.000     8.6140    31.5099    9.19378   96.59355    24.4448 2.1769e+00     31.281     1.0539 0.0000e+00
     30.000     8.6347    31.4907    9.19716   96.61436    24.4275 2.2847e+00     30.309     1.0370 0.0000e+00
     29.000     8.6475    31.4698    9.20219   96.66754    24.4081 2.4225e+00     29.305     0.9993 0.0000e+00
     28.000     8.6374    31.4832    9.20672   96.72739    24.4203 2.5920e+00     28.304     1.0321 0.0000e+00
     27.000     8.6512    31.4770    9.21188   96.76693    24.4153 2.8013e+00     27.350     1.0092 0.0000e+00
     26.000 -9.990e-29 -9.990e-29 -9.990e-29 -9.990e-29 -9.990e-29 -9.990e-29 -9.990e-29 -9.990e-29 -9.990e-29
     25.000 -9.990e-29 -9.990e-29 -9.990e-29 -9.990e-29 -9.990e-29 -9.990e-29 -9.990e-29 -9.990e-29 -9.990e-29
     24.000 -9.990e-29 -9.990e-29 -9.990e-29 -9.990e-29 -9.990e-29 -9.990e-29 -9.990e-29 -9.990e-29 -9.990e-29
     23.000     8.5935    31.5301    9.19443   96.54131    24.4636 4.2639e+00     22.799     1.0675 0.0000e+00
     22.000     8.5824    31.5439    9.20549   96.70693    24.4761 4.5414e+00     22.194     1.0659 0.0000e+00
     21.000     8.6352    31.4921    9.20872   96.80981    24.4294 5.0374e+00     21.192     1.0424 0.0000e+00
     20.000     8.6818    31.4334    9.20891   96.76473    24.3757 5.5489e+00     20.224     0.9777 0.0000e+00
     19.000     8.6851    31.3933    9.22507   96.91057    24.3376 6.1040e+00     19.252     0.9476 0.0000e+00
     18.000     8.8106    31.2774    9.24543   97.40457    24.2340 6.4867e+00     18.125     0.9098 0.0000e+00
     17.000     8.8323    31.2523    9.24989   97.45918    24.2107 7.4768e+00     17.150     0.9125 0.0000e+00
     16.000     8.8344    31.2509    9.25858   97.58031    24.2093 8.9066e+00     16.180     0.8841 0.0000e+00
     15.000     8.8653    31.2146    9.26339   97.64110    24.1763 1.0547e+01     15.175     0.8820 0.0000e+00
     14.000 -9.990e-29 -9.990e-29 -9.990e-29 -9.990e-29 -9.990e-29 -9.990e-29 -9.990e-29 -9.990e-29 -9.990e-29
     13.000     8.8658    31.2150    9.26240   97.67843    24.1763 1.6443e+01     13.074     0.8532 0.0000e+00
     12.000     8.8908    31.1917    9.26595   97.97844    24.1559 2.0246e+01     12.104     0.8631 0.0000e+00
     11.000     9.0810    30.9469    9.25823   98.14008    23.9380 2.5391e+01     11.094     0.7942 0.0000e+00
     10.000     9.2398    30.7459    9.26556   98.53258    23.7567 3.2353e+01     10.092     0.7478 0.0000e+00
      9.000     9.4553    30.4881    9.25243   98.56842    23.5240 4.1812e+01      9.076     0.7108 0.0000e+00
      8.000     9.5630    30.3390    9.24063   98.76161    23.3876 5.5682e+01      8.090     0.7143 0.0000e+00
      7.000     9.7511    30.1125    9.23265   99.24312    23.1855 7.6311e+01      7.040     0.7473 0.0000e+00
      6.000    10.0813    29.7352    9.20057   99.31758    22.8428 1.0781e+02      6.056     0.8266 0.0000e+00
      5.000    10.3983    29.3807    9.17770   99.28282    22.5138 1.5110e+02      5.030     0.9106 0.0000e+00
      4.000    10.5903    29.1494    9.15901   99.16279    22.2974 1.9650e+02      3.995     0.9688 0.0000e+00
      3.000    10.6542    29.0613    9.15032   99.27410    22.2149 2.1582e+02      3.021     0.9724 0.0000e+00
      2.000    10.7121    29.0069    9.11525   99.11437    22.1654 1.7016e+02      2.025     0.9422 0.0000e+00
      1.000    10.8609    28.8572 -9.990e-29 -9.990e-29    22.0298 2.3512e+02      1.080     0.8968 0.0000e+00
