* Sea-Bird SBE19plus Data File:
* FileName = C:\data\otf\2007\ctd-07132.hex
* Software Version 1.55
* Temperature SN =  5061
* Conductivity SN =  5061
* System UpLoad Time = Aug 15 2007 17:26:34
* ds
* SeacatPlus V 1.6a  SERIAL NO. 5061    15 Aug 2007  15:31:53
* vbatt = 10.9, vlith =  8.7, ioper =  61.6 ma, ipump =  57.5 ma, 
* iext01 =  95.2 ma
* iext23 =  58.1 ma
* 
* status = not logging
* number of scans to average = 1
* samples = 153039, free = 288466, casts = 154
* mode = profile, minimum cond freq = 3000, pump delay = 60 sec
* autorun = no, ignore magnetic switch = no
* battery type = alkaline, battery cutoff =  7.3 volts
* pressure sensor = strain gauge, range = 870.0
* SBE 38 = no, Gas Tension Device = no
* Ext Volt 0 = yes, Ext Volt 1 = yes, Ext Volt 2 = yes, Ext Volt 3 = yes
* echo commands = yes
* output format = raw HEX
* S>
* 
* SeacatPlus V 1.6a  SERIAL NO. 5061    15 Aug 2007  15:32:18
* temperature:  05-oct-06
*     TA0 = 1.254184e-03
*     TA1 = 2.596730e-04
*     TA2 = 5.165612e-07
*     TA3 = 1.318931e-07
*     TOFFSET = 0.000000e+00
* conductivity:  05-oct-06
*     G = -9.978144e-01
*     H = 1.555200e-01
*     I = -4.839108e-04
*     J = 6.121100e-05
*     CF0 = 2.539936e+03
*     CPCOR = -9.570000e-08
*     CTCOR = 3.250000e-06
*     CSLOPE = 1.000000e+00
* pressure S/N = 2362539, range = 870 psia:  24-aug-06
*     PA0 = 2.171091e-01
*     PA1 = 2.647085e-03
*     PA2 = 1.419397e-11
*     PTCA0 = 5.242437e+05
*     PTCA1 = 7.545345e+00
*     PTCA2 = -1.835354e-01
*     PTCB0 = 2.537125e+01
*     PTCB1 = -1.750000e-03
*     PTCB2 = 0.000000e+00
*     PTEMPA0 = -5.753989e+01
*     PTEMPA1 = 5.235813e+01
*     PTEMPA2 = -4.015521e-02
*     POFFSET = 0.000000e+00
* volt 0: offset = -4.682842e-02, slope = 1.249147e+00
* volt 1: offset = -4.695158e-02, slope = 1.248145e+00
* volt 2: offset = -4.685263e-02, slope = 1.248783e+00
* volt 3: offset = -4.690316e-02, slope = 1.249508e+00
*     EXTFREQSF = 1.000002e+00
* dh
* cast 132 26 Jul 2007 09:07:06 samples 129425 to 130740, avg = 1, stop = mag switch
* S> 
# nquan = 10
# nvalues = 139                         
# units = specified
# name 0 = depSM: Depth [salt water, m]
# name 1 = tv290C: Temperature [ITS-90, deg C]
# name 2 = sal00: Salinity [PSU]
# name 3 = sbeox0Mg/L: Oxygen, SBE 43 [mg/l]
# name 4 = sbeox0PS: Oxygen, SBE 43 [% saturation]
# name 5 = sigma-t00: Density [sigma-t, Kg/m^3 ]
# name 6 = par: PAR/Irradiance, Biospherical/Licor
# name 7 = prdM: Pressure, Strain Gauge [db]
# name 8 = flECO-AFL: Fluorescence, Wetlab ECO-AFL/FL [mg/m^3]
# name 9 = flag: flag
# span 0 =      1.000,     72.000       
# span 1 =     8.3625,    10.2086       
# span 2 =    29.8623,    31.7114       
# span 3 =    8.43868,    9.50787       
# span 4 =   90.18037,  100.07101       
# span 5 =    22.9168,    24.6393       
# span 6 = 1.5479e+00, 1.5117e+02       
# span 7 =      1.099,     72.395       
# span 8 =     0.5632,     1.1892       
# span 9 = 0.0000e+00, 0.0000e+00       
# interval = meters: 1                  
# start_time = Jul 26 2007 09:07:06
# bad_flag = -9.990e-29
# sensor 0 = Frequency 0  temperature, 5061, 05-Oct-06
# sensor 1 = Frequency 1  conductivity, 5061, 05-Oct-06, cpcor = -9.5700e-08
# sensor 2 = Pressure Number
# sensor 3 = Extrnl Volt  0  irradiance (PAR), primary, 4751, 08/10/06
# sensor 4 = Extrnl Volt  1  Oxygen, SBE, primary, 1081, 10/24/06
# sensor 5 = Extrnl Volt  2  WET Labs, ECO_AFL
# sensor 6 = Extrnl Volt  3  userpoly 0, 0627, 10/11/06
# datcnv_date = Oct 15 2007 14:49:52, 5.37e
# datcnv_in = I:\bob d\OTF_GEM\2007\ctd-07132.hex I:\Willette\OTF\CTD\5061.con
# datcnv_skipover = 0
# filter_date = Oct 15 2007 15:02:40, 5.37e
# filter_in = I:\Willette\OTF\CTD\2007\CTD Data\ctd-07132.cnv
# filter_low_pass_tc_A = 1.000
# filter_low_pass_tc_B = 0.150
# filter_low_pass_A_vars = prdM
# filter_low_pass_B_vars =
# loopedit_date = Oct 15 2007 15:06:59, 5.37e
# loopedit_in = I:\Willette\OTF\CTD\2007\CTD Data\ctd-07132.cnv
# loopedit_minVelocity = 0.250                                                                                            
# loopedit_surfaceSoak: minDepth = 5.0, maxDepth = 20, useDeckPress = 1                                                   
# loopedit_excl_bad_scans = yes
# alignctd_date = Oct 15 2007 15:14:23, 5.37e
# alignctd_in = I:\Willette\OTF\CTD\2007\CTD Data\ctd-07132.cnv
# alignctd_adv = tv290C 0.500, sbeox0Mg/L 4.000, sbeox0PS 4.000                                                                                                                                                                      
# binavg_date = Oct 15 2007 15:18:52, 5.37e
# binavg_in = I:\Willette\OTF\CTD\2007\CTD Data\ctd-07132.cnv
# binavg_bintype = meters
# binavg_binsize = 1
# binavg_excl_bad_scans = yes
# binavg_skipover = 0
# binavg_surface_bin = no, min = 0.000, max = 0.000, value = 0.000
# file_type = ascii
*END*
      5.000     9.9917    30.1154    8.46159   90.47514    23.1346 4.6038e+01      5.019     0.6843 0.0000e+00
      6.000     9.9288    30.2102    8.47468   90.58880    23.2221 3.5599e+01      6.030     0.5900 0.0000e+00
      7.000     9.8366    30.2845    8.43868   90.18037    23.2898 2.7471e+01      7.057     0.5632 0.0000e+00
      8.000     9.7058    30.4695    8.45258   90.29614    23.4560 2.1154e+01      7.954     0.6037 0.0000e+00
      9.000     9.6707    30.5610    8.58276   91.65508    23.5398 1.6508e+01      9.066     0.5648 0.0000e+00
     10.000     9.6451    30.5747    8.78492   93.78716    23.5537 1.3209e+01     10.146     0.5714 0.0000e+00
     11.000     9.6280    30.5920    8.89905   94.97289    23.5708 1.0410e+01     11.133     0.5989 0.0000e+00
     12.000     9.6169    30.5901    8.97627   95.76509    23.5714 8.2620e+00     12.234     0.6262 0.0000e+00
     13.000     9.5967    30.6069    9.01530   96.15832    23.5863 6.7747e+00     13.154     0.6433 0.0000e+00
     14.000     9.5769    30.6393    9.04666   96.47542    23.6155 5.6662e+00     14.135     0.6810 0.0000e+00
     15.000     9.5609    30.6662    9.06721   96.67729    23.6386 4.7792e+00     15.108     0.6726 0.0000e+00
     16.000     9.5394    30.6879    9.09219   96.91400    23.6593 4.0811e+00     16.166     0.6984 0.0000e+00
     17.000     9.5301    30.7016    9.11863   97.04857    23.6718 3.5297e+00     17.102     0.6832 0.0000e+00
     18.000     9.5157    30.7156    9.13879   96.89038    23.6852 3.0555e+00     18.238     0.6731 0.0000e+00
     19.000     9.4978    30.7184    9.15008   96.80644    23.6883 2.7461e+00     19.267     0.6737 0.0000e+00
     20.000     9.4230    30.7656    9.16957   96.95785    23.7322 2.4998e+00     20.169     0.6732 0.0000e+00
     21.000     9.2559    30.8781    9.20313   97.24142    23.8374 2.3025e+00     21.165     0.6697 0.0000e+00
     22.000     9.0422    31.1579    9.23283   97.48932    24.0929 2.1464e+00     22.218     0.7056 0.0000e+00
     23.000     8.9727    31.3176    9.25404   97.67749    24.2363 2.0287e+00     23.214     0.8149 0.0000e+00
     24.000     8.9414    31.3545    9.27424   97.84852    24.2710 1.9386e+00     24.195     0.8842 0.0000e+00
     25.000     8.8931    31.3941    9.28381   97.85855    24.3099 1.8680e+00     25.303     0.9206 0.0000e+00
     26.000     8.8699    31.4127    9.29727   97.88823    24.3283 1.8275e+00     26.337     0.9573 0.0000e+00
     27.000     8.8518    31.4298    9.30999   97.98872    24.3448 1.7784e+00     27.216     0.9985 0.0000e+00
     28.000     8.8194    31.4535    9.32611   98.11335    24.3669 1.7428e+00     28.219     0.9618 0.0000e+00
     29.000     8.7590    31.4953    9.33778   98.16404    24.4064 1.7145e+00     29.245     0.9842 0.0000e+00
     30.000     8.7093    31.5478    9.34839   98.24598    24.4580 1.6901e+00     30.303     1.0028 0.0000e+00
     31.000     8.6912    31.5598    9.36236   98.36579    24.4708 1.6710e+00     31.242     0.9947 0.0000e+00
     32.000     8.6516    31.5718    9.37469   98.43416    24.4846 1.6516e+00     32.274     0.9885 0.0000e+00
     33.000     8.6253    31.5958    9.38323   98.46607    24.5092 1.6373e+00     33.300     0.9804 0.0000e+00
     34.000     8.6136    31.6016    9.39453   98.52278    24.5154 1.6251e+00     34.385     0.9746 0.0000e+00
     35.000     8.5794    31.6093    9.40289   98.59570    24.5255 1.6165e+00     35.361     0.9737 0.0000e+00
     36.000     8.5625    31.6232    9.40935   98.66632    24.5395 1.6078e+00     36.244     0.9869 0.0000e+00
     37.000     8.5245    31.6374    9.41616   98.70856    24.5559 1.6003e+00     37.221     1.1646 0.0000e+00
     38.000     8.5095    31.6542    9.41718   98.66154    24.5728 1.5930e+00     38.238     1.1892 0.0000e+00
     39.000     8.4893    31.6583    9.42910   98.83799    24.5782 1.5860e+00     39.350     1.1764 0.0000e+00
     40.000     8.4805    31.6750    9.43571   98.91325    24.5948 1.5821e+00     40.433     1.1282 0.0000e+00
     41.000     8.4979    31.6633    9.43999   98.87962    24.5824 1.5777e+00     41.430     1.1543 0.0000e+00
     42.000     8.4956    31.6584    9.44533   98.91753    24.5779 1.5736e+00     42.473     1.1582 0.0000e+00
     43.000     8.4610    31.6631    9.45065   98.96037    24.5853 1.5702e+00     43.434     1.1582 0.0000e+00
     44.000     8.4506    31.6787    9.45696   99.02501    24.6008 1.5676e+00     44.396     1.1505 0.0000e+00
     45.000     8.4445    31.6806    9.46521   99.11346    24.6031 1.5650e+00     45.457     1.1486 0.0000e+00
     46.000     8.4403    31.6846    9.46134   99.07955    24.6071 1.5629e+00     46.432     1.1369 0.0000e+00
     47.000     8.4392    31.6845    9.46042   99.04889    24.6072 1.5606e+00     47.434     1.1424 0.0000e+00
     48.000     8.4444    31.6847    9.46676   99.12184    24.6070 1.5592e+00     48.459     1.1436 0.0000e+00
     49.000     8.4392    31.6803    9.46944   99.15141    24.6035 1.5575e+00     49.509     1.1440 0.0000e+00
     50.000     8.4335    31.6862    9.47430   99.18159    24.6095 1.5565e+00     50.445     1.1524 0.0000e+00
     51.000     8.4394    31.6850    9.48158   99.26992    24.6079 1.5558e+00     51.480     1.1031 0.0000e+00
     52.000     8.4328    31.6824    9.48305   99.25198    24.6060 1.5545e+00     52.499     1.1212 0.0000e+00
     53.000     8.4305    31.6886    9.48060   99.16767    24.6120 1.5536e+00     53.532     1.1084 0.0000e+00
     54.000     8.4336    31.6849    9.48445   99.20042    24.6083 1.5530e+00     54.498     1.1155 0.0000e+00
     55.000     8.4026    31.6863    9.49007   99.26483    24.6123 1.5524e+00     55.524     1.1054 0.0000e+00
     56.000     8.3863    31.7011    9.49443   99.30974    24.6278 1.5517e+00     56.534     1.0886 0.0000e+00
     57.000     8.3867    31.7047    9.48921   99.25134    24.6311 1.5512e+00     57.567     1.0830 0.0000e+00
     58.000     8.3873    31.7021    9.48429   99.18865    24.6286 1.5510e+00     58.488     1.0840 0.0000e+00
     59.000     8.3875    31.7030    9.49051   99.25995    24.6295 1.5502e+00     59.599     1.0497 0.0000e+00
     60.000     8.3817    31.7026    9.48959   99.24520    24.6297 1.5500e+00     60.566     1.0571 0.0000e+00
     61.000     8.3825    31.7051    9.49180   99.26653    24.6320 1.5498e+00     61.583     1.0589 0.0000e+00
     62.000     8.3814    31.7035    9.49347   99.28543    24.6305 1.5496e+00     62.524     1.0522 0.0000e+00
     63.000     8.3803    31.7049    9.49234   99.24631    24.6320 1.5493e+00     63.560     1.0671 0.0000e+00
     64.000     8.3793    31.7039    9.49283   99.24420    24.6311 1.5493e+00     64.594     1.0519 0.0000e+00
     65.000     8.3641    31.7086    9.50004   99.31783    24.6371 1.5490e+00     65.596     1.0366 0.0000e+00
     66.000     8.3631    31.7100    9.50201   99.33721    24.6385 1.5490e+00     66.704     1.0280 0.0000e+00
     67.000     8.3627    31.7103    9.50200   99.33748    24.6388 1.5488e+00     67.593     1.0216 0.0000e+00
     68.000     8.3625    31.7100    9.50578   99.38754    24.6386 1.5484e+00     68.705     1.0256 0.0000e+00
     69.000     8.3645    31.7108    9.49984   99.32100    24.6391 1.5481e+00     69.665     1.0327 0.0000e+00
     70.000     8.3664    31.7084    9.50282   99.36252    24.6366 1.5483e+00     70.614     1.0163 0.0000e+00
     71.000     8.3670    31.7114    9.50208   99.34887    24.6393 1.5479e+00     71.736     1.0462 0.0000e+00
     72.000     8.3732    31.7078    9.49740   99.29555    24.6354 1.5481e+00     72.395     1.0376 0.0000e+00
     71.000     8.3656    31.7096    9.49908   99.31027    24.6379 1.5481e+00     71.559     1.0831 0.0000e+00
     70.000     8.3655    31.7092    9.50139   99.34098    24.6374 1.5481e+00     70.630     1.0867 0.0000e+00
     69.000     8.3645    31.7095    9.50028   99.33255    24.6379 1.5481e+00     69.654     1.0566 0.0000e+00
     68.000     8.3659    31.7104    9.49862   99.32757    24.6385 1.5482e+00     68.631     1.0728 0.0000e+00
     67.000     8.3687    31.7088    9.49731   99.32241    24.6368 1.5482e+00     67.638     1.0783 0.0000e+00
     66.000     8.3712    31.7093    9.50297   99.38398    24.6371 1.5482e+00     66.652     1.0659 0.0000e+00
     65.000     8.3779    31.7070    9.49923   99.34196    24.6342 1.5486e+00     65.667     1.0781 0.0000e+00
     64.000     8.3801    31.7049    9.50584   99.39810    24.6320 1.5486e+00     64.614     1.0808 0.0000e+00
     63.000     8.3794    31.7040    9.50264   99.36218    24.6313 1.5488e+00     63.586     1.0477 0.0000e+00
     62.000     8.3742    31.7047    9.49778   99.31268    24.6324 1.5488e+00     62.630     1.0554 0.0000e+00
     61.000     8.3711    31.7079    9.49942   99.33530    24.6357 1.5488e+00     61.583     1.0361 0.0000e+00
     60.000     8.3722    31.7067    9.49571   99.29847    24.6346 1.5492e+00     60.560     1.0476 0.0000e+00
     59.000     8.3747    31.7069    9.50051   99.36283    24.6345 1.5498e+00     59.616     1.0417 0.0000e+00
     58.000     8.3762    31.7064    9.50281   99.40007    24.6339 1.5498e+00     58.536     1.0626 0.0000e+00
     57.000     8.3838    31.7043    9.50787   99.47815    24.6312 1.5501e+00     57.552     1.0392 0.0000e+00
     56.000     8.3906    31.7022    9.50289   99.46262    24.6286 1.5507e+00     56.529     1.0403 0.0000e+00
     55.000     8.4037    31.6990    9.50325   99.46086    24.6245 1.5509e+00     55.542     1.0599 0.0000e+00
     54.000     8.4199    31.6917    9.50158   99.42902    24.6162 1.5513e+00     54.527     1.0864 0.0000e+00
     53.000     8.4124    31.6905    9.50024   99.44151    24.6156 1.5520e+00     53.491     1.0771 0.0000e+00
     52.000     8.4105    31.6940    9.49675   99.42767    24.6191 1.5529e+00     52.516     1.0835 0.0000e+00
     51.000     8.4274    31.6914    9.49032   99.34446    24.6152 1.5535e+00     51.495     1.0869 0.0000e+00
     50.000     8.4313    31.6837    9.49098   99.36448    24.6076 1.5544e+00     50.490     1.1053 0.0000e+00
     49.000     8.4267    31.6886    9.48360   99.30148    24.6126 1.5557e+00     49.438     1.1118 0.0000e+00
     48.000     8.4357    31.6849    9.48603   99.34041    24.6084 1.5568e+00     48.467     1.1257 0.0000e+00
     47.000     8.4408    31.6830    9.49510   99.47567    24.6061 1.5579e+00     47.476     1.1454 0.0000e+00
     46.000     8.4600    31.6779    9.49779   99.52414    24.5999 1.5595e+00     46.437     1.1589 0.0000e+00
     45.000     8.4765    31.6678    9.49960   99.55407    24.5890 1.5614e+00     45.418     1.1676 0.0000e+00
     44.000     8.4797    31.6654    9.49654   99.52377    24.5865 1.5632e+00     44.444     1.1712 0.0000e+00
     43.000     8.4845    31.6623    9.49629   99.52663    24.5832 1.5652e+00     43.419     1.1550 0.0000e+00
     42.000     8.4839    31.6638    9.49084   99.47904    24.5847 1.5682e+00     42.364     1.1282 0.0000e+00
     41.000     8.4895    31.6606    9.48548   99.42876    24.5813 1.5705e+00     41.418     1.0920 0.0000e+00
     40.000     8.4941    31.6576    9.49467   99.54973    24.5781 1.5739e+00     40.348     1.0375 0.0000e+00
     39.000     8.5033    31.6561    9.49609   99.57213    24.5761 1.5778e+00     39.384     1.0201 0.0000e+00
     38.000     8.5094    31.6505    9.49017   99.52230    24.5704 1.5816e+00     38.387     1.0263 0.0000e+00
     37.000     8.5189    31.6462    9.48533   99.47054    24.5656 1.5877e+00     37.316     1.0053 0.0000e+00
     36.000     8.5156    31.6472    9.48320   99.45895    24.5668 1.5939e+00     36.355     0.9846 0.0000e+00
     35.000     8.5200    31.6467    9.49099   99.58939    24.5660 1.6003e+00     35.348     0.9859 0.0000e+00
     34.000     8.5462    31.6360    9.49562   99.72017    24.5543 1.6095e+00     34.300     0.9668 0.0000e+00
     33.000     8.5796    31.6199    9.48409   99.67886    24.5372 1.6184e+00     33.344     0.9937 0.0000e+00
     32.000     8.6385    31.5848    9.48409   99.78702    24.5010 1.6308e+00     32.281     0.9775 0.0000e+00
     31.000     8.6836    31.5554    9.46928   99.66696    24.4709 1.6452e+00     31.309     0.9681 0.0000e+00
     30.000     8.7140    31.5321    9.47106   99.65694    24.4473 1.6619e+00     30.265     0.9879 0.0000e+00
     29.000     8.6957    31.5432    9.47000   99.72406    24.4584 1.6835e+00     29.287     0.9609 0.0000e+00
     28.000     8.7218    31.5373    9.46234   99.69903    24.4514 1.7125e+00     28.228     0.9877 0.0000e+00
     27.000     8.7662    31.5026    9.46176   99.80641    24.4165 1.7436e+00     27.267     0.9601 0.0000e+00
     26.000     8.8102    31.4848    9.45062   99.87302    24.3980 1.7883e+00     26.234     0.9514 0.0000e+00
     25.000     8.9138    31.4054    9.43348   99.72917    24.3201 1.8316e+00     25.261     0.9485 0.0000e+00
     24.000     8.9598    31.3515    9.43478   99.80832    24.2690 1.9013e+00     24.181     0.9139 0.0000e+00
     23.000     8.9851    31.3020    9.42444  100.06767    24.2277 1.9846e+00     23.244     0.8642 0.0000e+00
     22.000     9.2296    31.0112    9.40338  100.07101    23.9680 2.1024e+00     22.208     0.6647 0.0000e+00
     21.000     9.4039    30.8067    9.38368   99.96009    23.7778 2.2708e+00     21.169     0.6127 0.0000e+00
     20.000     9.4583    30.7412    9.37179   99.88564    23.7159 2.4513e+00     20.208     0.6048 0.0000e+00
     19.000     9.4992    30.7008    9.35140   99.69061    23.6779 2.6937e+00     19.169     0.6092 0.0000e+00
     18.000     9.5154    30.6834    9.35279   99.73410    23.6609 3.0287e+00     18.174     0.6186 0.0000e+00
     17.000     9.5256    30.6803    9.34699   99.70044    23.6571 3.4355e+00     17.100     0.6194 0.0000e+00
     16.000     9.5431    30.6675    9.34323   99.66637    23.6446 3.8950e+00     16.193     0.6282 0.0000e+00
     15.000     9.5518    30.6584    9.33388   99.59092    23.6357 4.5855e+00     15.107     0.6339 0.0000e+00
     14.000     9.5591    30.6519    9.32307   99.49814    23.6296 5.4556e+00     14.110     0.6239 0.0000e+00
     13.000     9.5710    30.6435    9.32197   99.48930    23.6214 6.4816e+00     13.154     0.6220 0.0000e+00
     12.000     9.5848    30.6286    9.31493   99.42608    23.6074 7.9151e+00     12.095     0.6301 0.0000e+00
     11.000     9.5893    30.6137    9.32073   99.51624    23.5948 9.7287e+00     11.098     0.6415 0.0000e+00
     10.000     9.6003    30.5997    9.32303   99.55913    23.5828 1.2144e+01     10.087     0.6367 0.0000e+00
      9.000     9.6182    30.5786    9.30768   99.40782    23.5634 1.5246e+01      9.092     0.6251 0.0000e+00
      8.000     9.6300    30.5644    9.31232   99.55180    23.5502 1.9342e+01      8.050     0.6192 0.0000e+00
      7.000     9.6399    30.5564    9.32140   99.83642    23.5430 2.4835e+01      7.079     0.6132 0.0000e+00
      6.000     9.7018    30.4919    9.30914   99.82915    23.4860 3.1941e+01      6.065     0.6055 0.0000e+00
      5.000     9.8411    30.3189    9.29564   99.79699    23.3308 4.1289e+01      5.034     0.6197 0.0000e+00
      4.000     9.9223    30.2176    9.28359   99.78765    23.2369 5.2607e+01      4.044     0.6483 0.0000e+00
      3.000     9.9966    30.1249    9.27475   99.85172    23.1509 6.6147e+01      3.020     0.6775 0.0000e+00
      2.000    10.0794    30.0404    9.23507   99.60081    23.0747 8.1056e+01      2.032     0.7560 0.0000e+00
      1.000    10.2086    29.8623    9.39599   98.05278    22.9168 1.5117e+02      1.099     0.8059 0.0000e+00
