* Sea-Bird SBE19plus Data File:
* FileName = C:\data\otf\2007\ctd-07008.hex
* Software Version 1.55
* Temperature SN =  5061
* Conductivity SN =  5061
* System UpLoad Time = Aug 15 2007 15:38:18
* ds
* SeacatPlus V 1.6a  SERIAL NO. 5061    15 Aug 2007  15:31:53
* vbatt = 10.9, vlith =  8.7, ioper =  61.6 ma, ipump =  57.5 ma, 
* iext01 =  95.2 ma
* iext23 =  58.1 ma
* 
* status = not logging
* number of scans to average = 1
* samples = 153039, free = 288466, casts = 154
* mode = profile, minimum cond freq = 3000, pump delay = 60 sec
* autorun = no, ignore magnetic switch = no
* battery type = alkaline, battery cutoff =  7.3 volts
* pressure sensor = strain gauge, range = 870.0
* SBE 38 = no, Gas Tension Device = no
* Ext Volt 0 = yes, Ext Volt 1 = yes, Ext Volt 2 = yes, Ext Volt 3 = yes
* echo commands = yes
* output format = raw HEX
* S>
* 
* SeacatPlus V 1.6a  SERIAL NO. 5061    15 Aug 2007  15:32:18
* temperature:  05-oct-06
*     TA0 = 1.254184e-03
*     TA1 = 2.596730e-04
*     TA2 = 5.165612e-07
*     TA3 = 1.318931e-07
*     TOFFSET = 0.000000e+00
* conductivity:  05-oct-06
*     G = -9.978144e-01
*     H = 1.555200e-01
*     I = -4.839108e-04
*     J = 6.121100e-05
*     CF0 = 2.539936e+03
*     CPCOR = -9.570000e-08
*     CTCOR = 3.250000e-06
*     CSLOPE = 1.000000e+00
* pressure S/N = 2362539, range = 870 psia:  24-aug-06
*     PA0 = 2.171091e-01
*     PA1 = 2.647085e-03
*     PA2 = 1.419397e-11
*     PTCA0 = 5.242437e+05
*     PTCA1 = 7.545345e+00
*     PTCA2 = -1.835354e-01
*     PTCB0 = 2.537125e+01
*     PTCB1 = -1.750000e-03
*     PTCB2 = 0.000000e+00
*     PTEMPA0 = -5.753989e+01
*     PTEMPA1 = 5.235813e+01
*     PTEMPA2 = -4.015521e-02
*     POFFSET = 0.000000e+00
* volt 0: offset = -4.682842e-02, slope = 1.249147e+00
* volt 1: offset = -4.695158e-02, slope = 1.248145e+00
* volt 2: offset = -4.685263e-02, slope = 1.248783e+00
* volt 3: offset = -4.690316e-02, slope = 1.249508e+00
*     EXTFREQSF = 1.000002e+00
* dh
* cast   8 03 Jul 2007 13:27:01 samples 6902 to 8155, avg = 1, stop = mag switch
* S> 
# nquan = 10
# nvalues = 157                         
# units = specified
# name 0 = depSM: Depth [salt water, m]
# name 1 = tv290C: Temperature [ITS-90, deg C]
# name 2 = sal00: Salinity [PSU]
# name 3 = sbeox0Mg/L: Oxygen, SBE 43 [mg/l]
# name 4 = sbeox0PS: Oxygen, SBE 43 [% saturation]
# name 5 = sigma-t00: Density [sigma-t, Kg/m^3 ]
# name 6 = par: PAR/Irradiance, Biospherical/Licor
# name 7 = prdM: Pressure, Strain Gauge [db]
# name 8 = flECO-AFL: Fluorescence, Wetlab ECO-AFL/FL [mg/m^3]
# name 9 = flag: flag
# span 0 =      1.000,     81.000       
# span 1 =     8.0567,     9.0091       
# span 2 =    30.2351,    31.1369       
# span 3 =    9.10982,   11.13390       
# span 4 =   95.02717,  116.13237       
# span 5 =    23.3950,    24.2335       
# span 6 = 1.5461e+00, 7.8450e+02       
# span 7 =      1.166,     81.659       
# span 8 =     0.4424,     0.9554       
# span 9 = 0.0000e+00, 0.0000e+00       
# interval = meters: 1                  
# start_time = Jul 03 2007 13:27:01
# bad_flag = -9.990e-29
# sensor 0 = Frequency 0  temperature, 5061, 05-Oct-06
# sensor 1 = Frequency 1  conductivity, 5061, 05-Oct-06, cpcor = -9.5700e-08
# sensor 2 = Pressure Number
# sensor 3 = Extrnl Volt  0  irradiance (PAR), primary, 4751, 08/10/06
# sensor 4 = Extrnl Volt  1  Oxygen, SBE, primary, 1081, 10/24/06
# sensor 5 = Extrnl Volt  2  WET Labs, ECO_AFL
# sensor 6 = Extrnl Volt  3  userpoly 0, 0627, 10/11/06
# datcnv_date = Oct 15 2007 14:49:42, 5.37e
# datcnv_in = I:\bob d\OTF_GEM\2007\ctd-07008.hex I:\Willette\OTF\CTD\5061.con
# datcnv_skipover = 0
# filter_date = Oct 15 2007 15:02:17, 5.37e
# filter_in = I:\Willette\OTF\CTD\2007\CTD Data\ctd-07008.cnv
# filter_low_pass_tc_A = 1.000
# filter_low_pass_tc_B = 0.150
# filter_low_pass_A_vars = prdM
# filter_low_pass_B_vars =
# loopedit_date = Oct 15 2007 15:06:41, 5.37e
# loopedit_in = I:\Willette\OTF\CTD\2007\CTD Data\ctd-07008.cnv
# loopedit_minVelocity = 0.250                                                                                            
# loopedit_surfaceSoak: minDepth = 5.0, maxDepth = 20, useDeckPress = 1                                                   
# loopedit_excl_bad_scans = yes
# alignctd_date = Oct 15 2007 15:14:11, 5.37e
# alignctd_in = I:\Willette\OTF\CTD\2007\CTD Data\ctd-07008.cnv
# alignctd_adv = tv290C 0.500, sbeox0Mg/L 4.000, sbeox0PS 4.000                                                                                                                                                                      
# binavg_date = Oct 15 2007 15:18:40, 5.37e
# binavg_in = I:\Willette\OTF\CTD\2007\CTD Data\ctd-07008.cnv
# binavg_bintype = meters
# binavg_binsize = 1
# binavg_excl_bad_scans = yes
# binavg_skipover = 0
# binavg_surface_bin = no, min = 0.000, max = 0.000, value = 0.000
# file_type = ascii
*END*
      5.000     8.9424    30.2992    9.86186  103.11730    23.4469 9.8778e+01      5.127     0.5497 0.0000e+00
      6.000     8.8277    30.3850    9.89916  103.47639    23.5296 6.9219e+01      6.028     0.5674 0.0000e+00
      7.000     8.7248    30.4036    9.95129  103.87261    23.5555 4.7436e+01      7.105     0.5375 0.0000e+00
      8.000     8.6947    30.5028    9.96055  103.93540    23.6442 3.1857e+01      8.088     0.4819 0.0000e+00
      9.000     8.6259    30.5169    9.90207  103.30534    23.6630 2.2643e+01      9.064     0.4555 0.0000e+00
     10.000     8.6026    30.5666    9.88376  103.10894    23.7075 1.5479e+01     10.103     0.4717 0.0000e+00
     11.000     8.5940    30.5612    9.10982   95.02717    23.7045 1.0975e+01     11.090     0.4540 0.0000e+00
     12.000     8.5921    30.5645   11.13390  116.13237    23.7076 7.8633e+00     12.102     0.4529 0.0000e+00
     13.000     8.5886    30.5607    9.44013   98.43531    23.7050 5.7410e+00     13.115     0.4424 0.0000e+00
     14.000     8.5843    30.5592    9.46041   98.64809    23.7044 4.3086e+00     14.154     0.4540 0.0000e+00
     15.000     8.5783    30.5457    9.56863   99.76081    23.6950 3.4164e+00     15.118     0.4646 0.0000e+00
     16.000     8.5701    30.5601    9.65147  100.60909    23.7069 2.7673e+00     16.180     0.4648 0.0000e+00
     17.000     8.5575    30.5847    9.63724  100.40100    23.7283 2.3336e+00     17.207     0.4689 0.0000e+00
     18.000     8.5490    30.5964    9.70396  101.01084    23.7386 2.0844e+00     18.153     0.4965 0.0000e+00
     19.000     8.5184    30.6129    9.75050  101.47008    23.7532 1.9006e+00     19.126     0.5049 0.0000e+00
     20.000     8.4485    30.6940    9.79745  101.92325    23.8292 1.7637e+00     20.218     0.5340 0.0000e+00
     21.000     8.4453    30.6997    9.80703  101.99858    23.8350 1.6890e+00     21.251     0.5580 0.0000e+00
     22.000     8.4265    30.7093    9.82252  102.16245    23.8443 1.6430e+00     22.147     0.5374 0.0000e+00
     23.000     8.4152    30.7245    9.83750  102.32845    23.8586 1.6078e+00     23.234     0.5718 0.0000e+00
     24.000     8.4179    30.7230    9.85725  102.51395    23.8575 1.5871e+00     24.258     0.5534 0.0000e+00
     25.000     8.4212    30.7174    9.86669  102.57693    23.8523 1.5732e+00     25.243     0.5530 0.0000e+00
     26.000     8.4104    30.7235    9.87421  102.62024    23.8580 1.5644e+00     26.270     0.5780 0.0000e+00
     27.000     8.3887    30.7440    9.88654  102.74333    23.8772 1.5584e+00     27.262     0.5823 0.0000e+00
     28.000     8.3732    30.7572    9.89156  102.81212    23.8898 1.5539e+00     28.235     0.5615 0.0000e+00
     29.000     8.3677    30.7675    9.90127  102.87470    23.8995 1.5629e+00     29.261     0.5992 0.0000e+00
     30.000     8.3763    30.7583    9.90378  102.89432    23.8909 1.5518e+00     30.275     0.5945 0.0000e+00
     31.000     8.3521    30.7765    9.91060  102.94442    23.9079 1.5500e+00     31.276     0.5716 0.0000e+00
     32.000     8.3526    30.7818    9.91841  103.02591    23.9131 1.5493e+00     32.351     0.6365 0.0000e+00
     33.000     8.3354    30.7915    9.92526  103.08974    23.9220 1.5487e+00     33.345     0.6081 0.0000e+00
     34.000     8.3391    30.7920    9.93128  103.13318    23.9227 1.5485e+00     34.287     0.5839 0.0000e+00
     35.000     8.3327    30.7970    9.93383  103.09935    23.9272 1.5481e+00     35.350     0.6136 0.0000e+00
     36.000     8.3186    30.8096    9.94127  103.14278    23.9388 1.5481e+00     36.350     0.6190 0.0000e+00
     37.000     8.2773    30.8410    9.95155  103.20515    23.9675 1.5482e+00     37.352     0.6342 0.0000e+00
     38.000     8.2651    30.8677    9.95419  103.20698    23.9927 1.5481e+00     38.361     0.6684 0.0000e+00
     39.000     8.2409    30.8902    9.96171  103.26346    24.0129 1.5477e+00     39.378     0.6592 0.0000e+00
     40.000     8.2197    30.9126    9.96057  103.24768    24.0335 1.5477e+00     40.361     0.6645 0.0000e+00
     41.000     8.2123    30.9246    9.97083  103.35218    24.0446 1.5480e+00     41.364     0.7383 0.0000e+00
     42.000     8.2088    30.9293    9.97750  103.42480    24.0489 1.5476e+00     42.418     0.6794 0.0000e+00
     43.000     8.2100    30.9285    9.97958  103.42987    24.0482 1.5476e+00     43.422     0.6737 0.0000e+00
     44.000     8.2091    30.9283    9.98296  103.44052    24.0481 1.5475e+00     44.387     0.6742 0.0000e+00
     45.000     8.1948    30.9390    9.99267  103.52922    24.0575 1.5476e+00     45.466     0.7333 0.0000e+00
     46.000     8.1818    30.9595    9.99424  103.54630    24.0762 1.5475e+00     46.421     0.7375 0.0000e+00
     47.000     8.1781    30.9657    9.99286  103.52563    24.0819 1.5474e+00     47.456     0.7658 0.0000e+00
     48.000     8.1777    30.9660    9.99481  103.53700    24.0821 1.5475e+00     48.450     0.7335 0.0000e+00
     49.000     8.1708    30.9728   10.00052  103.59252    24.0881 1.5474e+00     49.489     0.7226 0.0000e+00
     50.000     8.1676    30.9787   10.00290  103.61534    24.0935 1.5476e+00     50.475     0.7466 0.0000e+00
     51.000     8.1648    30.9822   10.00911  103.67274    24.0966 1.5475e+00     51.491     0.7388 0.0000e+00
     52.000     8.1632    30.9843   10.01321  103.71087    24.0985 1.5475e+00     52.509     0.8113 0.0000e+00
     53.000     8.1593    30.9910   10.01170  103.68818    24.1045 1.5475e+00     53.575     0.7749 0.0000e+00
     54.000     8.1576    30.9906   10.01384  103.70930    24.1038 1.5474e+00     54.487     0.7623 0.0000e+00
     55.000     8.1488    31.0061   10.01797  103.72540    24.1179 1.5476e+00     55.560     0.7698 0.0000e+00
     56.000     8.1514    31.0010   10.01118  103.64770    24.1132 1.5478e+00     56.530     0.7645 0.0000e+00
     57.000     8.1358    31.0190   10.02118  103.75561    24.1288 1.5473e+00     57.544     0.7725 0.0000e+00
     58.000     8.1275    31.0354   10.02277  103.77195    24.1436 1.5470e+00     58.533     0.8550 0.0000e+00
     59.000     8.1297    31.0326   10.03077  103.84465    24.1413 1.5472e+00     59.663     0.7762 0.0000e+00
     60.000     8.1303    31.0316   10.03076  103.84281    24.1403 1.5473e+00     60.533     0.7724 0.0000e+00
     61.000     8.1232    31.0412   10.03454  103.88251    24.1487 1.5476e+00     61.653     0.7930 0.0000e+00
     62.000     8.1215    31.0439   10.03062  103.83590    24.1511 1.5475e+00     62.564     0.7719 0.0000e+00
     63.000     8.1218    31.0442   10.03532  103.87594    24.1515 1.5474e+00     63.604     0.7629 0.0000e+00
     64.000     8.1187    31.0463   10.03496  103.86398    24.1532 1.5472e+00     64.616     0.7957 0.0000e+00
     65.000     8.1114    31.0579   10.04005  103.90789    24.1636 1.5472e+00     65.627     0.8305 0.0000e+00
     66.000     8.1068    31.0628   10.03313  103.82175    24.1678 1.5474e+00     66.645     0.8252 0.0000e+00
     67.000     8.1008    31.0727   10.03328  103.81509    24.1766 1.5473e+00     67.627     0.8713 0.0000e+00
     68.000     8.0922    31.0821   10.04119  103.89330    24.1848 1.5471e+00     68.666     0.8577 0.0000e+00
     69.000     8.0840    31.0969   10.03943  103.87098    24.1980 1.5470e+00     69.648     0.8375 0.0000e+00
     70.000     8.0817    31.1005   10.04535  103.93271    24.2012 1.5472e+00     70.674     0.8718 0.0000e+00
     71.000     8.0788    31.1040   10.05327  104.02081    24.2043 1.5471e+00     71.653     0.8253 0.0000e+00
     72.000     8.0785    31.1061   10.06184  104.11140    24.2062 1.5470e+00     72.725     0.8737 0.0000e+00
     73.000     8.0830    31.0998   10.05633  104.05369    24.2007 1.5470e+00     73.697     0.8461 0.0000e+00
     74.000     8.0844    31.0969   10.05327  104.02179    24.1981 1.5473e+00     74.706     0.7972 0.0000e+00
     75.000     8.0840    31.0975   10.05007  103.97325    24.1986 1.5468e+00     75.713     0.8206 0.0000e+00
     76.000     8.0834    31.0987   10.04502  103.90373    24.1997 1.5472e+00     76.738     0.8451 0.0000e+00
     77.000     8.0721    31.1107   10.04992  103.95242    24.2100 1.5470e+00     77.741     0.8452 0.0000e+00
     78.000     8.0609    31.1291   10.04954  103.94309    24.2265 1.5467e+00     78.720     0.8277 0.0000e+00
     79.000     8.0597    31.1310   10.05495  103.99892    24.2282 1.5469e+00     79.768     0.8464 0.0000e+00
     80.000     8.0567    31.1354   10.05211  103.96941    24.2322 1.5469e+00     80.706     0.8094 0.0000e+00
     81.000     8.0568    31.1369   10.04398  103.88586    24.2335 1.5472e+00     81.659     0.8540 0.0000e+00
     80.000     8.0573    31.1362   10.05009  103.95772    24.2328 1.5469e+00     80.713     0.8729 0.0000e+00
     79.000     8.0574    31.1359   10.05068  103.96386    24.2326 1.5465e+00     79.766     0.9084 0.0000e+00
     78.000     8.0621    31.1296   10.04457  103.90153    24.2270 1.5486e+00     78.677     0.8492 0.0000e+00
     77.000     8.0618    31.1302   10.04205  103.88351    24.2275 1.5470e+00     77.750     0.9033 0.0000e+00
     76.000     8.0617    31.1296   10.04473  103.92219    24.2270 1.5468e+00     76.695     0.8185 0.0000e+00
     75.000     8.0661    31.1242   10.04799  103.95945    24.2224 1.5468e+00     75.764     0.8346 0.0000e+00
     74.000     8.0736    31.1143   10.04817  103.97151    24.2136 1.5467e+00     74.703     0.8889 0.0000e+00
     73.000     8.0780    31.1070   10.05139  104.01017    24.2070 1.5467e+00     73.724     0.8742 0.0000e+00
     72.000     8.0831    31.1014   10.05314  104.03559    24.2023 1.5466e+00     72.619     0.9554 0.0000e+00
     71.000     8.0893    31.0904   10.05425  104.05863    24.1925 1.5467e+00     71.717     0.8349 0.0000e+00
     70.000     8.0918    31.0870   10.05552  104.08483    24.1895 1.5466e+00     70.664     0.8652 0.0000e+00
     69.000     8.0983    31.0795   10.05275  104.05722    24.1829 1.5467e+00     69.669     0.8390 0.0000e+00
     68.000     8.1121    31.0610   10.05328  104.07328    24.1668 1.5468e+00     68.620     0.8051 0.0000e+00
     67.000     8.1110    31.0584   10.04682  104.00199    24.1641 1.5467e+00     67.673     0.8126 0.0000e+00
     66.000     8.1172    31.0526   10.05082  104.02892    24.1591 1.5467e+00     66.605     0.8371 0.0000e+00
     65.000     8.1196    31.0456   10.03959  103.91214    24.1528 1.5464e+00     65.601     0.7857 0.0000e+00
     64.000     8.1105    31.0564   10.03172  103.82872    24.1621 1.5463e+00     64.651     0.7785 0.0000e+00
     63.000     8.1066    31.0648   10.03659  103.88011    24.1697 1.5466e+00     63.613     0.8365 0.0000e+00
     62.000     8.1056    31.0661   10.04596  103.98964    24.1709 1.5466e+00     62.558     0.8452 0.0000e+00
     61.000     8.1046    31.0676   10.04944  104.04003    24.1723 1.5467e+00     61.616     0.8447 0.0000e+00
     60.000     8.1100    31.0624   10.04991  104.03892    24.1678 1.5463e+00     60.575     0.8183 0.0000e+00
     59.000     8.1226    31.0453   10.05148  104.06674    24.1529 1.5461e+00     59.597     0.7784 0.0000e+00
     58.000     8.1220    31.0406   10.04375  104.01149    24.1484 1.5465e+00     58.548     0.7664 0.0000e+00
     57.000     8.1256    31.0405   10.03756  103.94990    24.1486 1.5465e+00     57.609     0.7847 0.0000e+00
     56.000     8.1456    31.0115   10.03041  103.87582    24.1231 1.5463e+00     56.459     0.7441 0.0000e+00
     55.000     8.1481    31.0046   10.03502  103.92708    24.1167 1.5461e+00     55.564     0.7220 0.0000e+00
     54.000     8.1478    31.0059   10.03379  103.91252    24.1178 1.5463e+00     54.458     0.7879 0.0000e+00
     53.000     8.1488    31.0046   10.02721  103.83877    24.1167 1.5463e+00     53.544     0.8165 0.0000e+00
     52.000     8.1505    31.0001   10.03253  103.91339    24.1126 1.5466e+00     52.443     0.7687 0.0000e+00
     51.000     8.1436    31.0106   10.02853  103.88129    24.1218 1.5466e+00     51.536     0.7310 0.0000e+00
     50.000     8.1554    30.9988   10.03165  103.92560    24.1119 1.5466e+00     50.426     0.7509 0.0000e+00
     49.000     8.1639    30.9840   10.02642  103.88286    24.0986 1.5468e+00     49.509     0.7203 0.0000e+00
     48.000     8.1716    30.9742   10.02487  103.87243    24.0899 1.5462e+00     48.396     0.7012 0.0000e+00
     47.000     8.1792    30.9642   10.01705  103.79193    24.0809 1.5466e+00     47.455     0.7003 0.0000e+00
     46.000     8.1837    30.9571   10.01779  103.80308    24.0745 1.5465e+00     46.457     0.7079 0.0000e+00
     45.000     8.1845    30.9557   10.02286  103.85452    24.0731 1.5466e+00     45.371     0.7889 0.0000e+00
     44.000     8.1866    30.9538   10.02439  103.86926    24.0715 1.5462e+00     44.458     0.6899 0.0000e+00
     43.000     8.1865    30.9532   10.02624  103.88505    24.0708 1.5464e+00     43.420     0.6946 0.0000e+00
     42.000     8.1859    30.9539   10.02480  103.90698    24.0714 1.5464e+00     42.389     0.6972 0.0000e+00
     41.000     8.1837    30.9559   10.02123  103.92810    24.0733 1.5465e+00     41.374     0.7205 0.0000e+00
     40.000     8.1946    30.9510   10.01276  103.86805    24.0692 1.5465e+00     40.370     0.7341 0.0000e+00
     39.000     8.2305    30.9112    9.99952  103.75529    24.0333 1.5465e+00     39.411     0.6820 0.0000e+00
     38.000     8.2543    30.8804    9.99919  103.77036    24.0050 1.5466e+00     38.312     0.6506 0.0000e+00
     37.000     8.2702    30.8632   10.00067  103.79871    23.9891 1.5465e+00     37.385     0.6020 0.0000e+00
     36.000     8.2821    30.8485   10.00110  103.83756    23.9756 1.5465e+00     36.257     0.6502 0.0000e+00
     35.000     8.2892    30.8416    9.99463  103.77359    23.9691 1.5465e+00     35.350     0.6139 0.0000e+00
     34.000     8.3042    30.8306    9.98572  103.68986    23.9591 1.5467e+00     34.269     0.5926 0.0000e+00
     33.000     8.3139    30.8152    9.98433  103.68141    23.9447 1.5465e+00     33.326     0.6086 0.0000e+00
     32.000     8.3175    30.8119    9.99162  103.76189    23.9417 1.5472e+00     32.287     0.5699 0.0000e+00
     31.000     8.3219    30.8067    9.98930  103.73881    23.9369 1.5477e+00     31.300     0.5991 0.0000e+00
     30.000     8.3258    30.8024    9.98807  103.73212    23.9329 1.5482e+00     30.282     0.6682 0.0000e+00
     29.000     8.3276    30.7988    9.98430  103.69755    23.9297 1.5495e+00     29.263     0.5884 0.0000e+00
     28.000     8.3284    30.7981    9.98565  103.72185    23.9290 1.5514e+00     28.188     0.5718 0.0000e+00
     27.000     8.3319    30.7956    9.98118  103.68097    23.9267 1.5550e+00     27.303     0.5603 0.0000e+00
     26.000     8.3349    30.7935    9.98548  103.74778    23.9246 1.5594e+00     26.197     0.5709 0.0000e+00
     25.000     8.3406    30.7878    9.98366  103.74379    23.9194 1.5677e+00     25.232     0.5489 0.0000e+00
     24.000     8.3449    30.7845    9.97925  103.70926    23.9163 1.5788e+00     24.182     0.5523 0.0000e+00
     23.000     8.3580    30.7734    9.97866  103.71558    23.9061 1.6003e+00     23.281     0.5340 0.0000e+00
     22.000     8.3664    30.7617    9.97481  103.70242    23.8950 1.6320e+00     22.067     0.5506 0.0000e+00
     21.000     8.3720    30.7595    9.97541  103.74159    23.8930 1.6763e+00     21.285     0.5620 0.0000e+00
     20.000     8.3809    30.7510    9.96490  103.65592    23.8849 1.7519e+00     20.116     0.5681 0.0000e+00
     19.000     8.3948    30.7439    9.96559  103.71510    23.8781 1.8608e+00     19.231     0.5530 0.0000e+00
     18.000     8.4162    30.7242    9.96079  103.72681    23.8593 2.0350e+00     18.131     0.5565 0.0000e+00
     17.000     8.4250    30.7160    9.96220  103.76412    23.8514 2.2914e+00     17.193     0.5281 0.0000e+00
     16.000     8.4717    30.6806    9.95146  103.67371    23.8188 2.6976e+00     16.127     0.5431 0.0000e+00
     15.000     8.4912    30.6461    9.98618  104.06308    23.7867 3.2679e+00     15.141     0.4985 0.0000e+00
     14.000     8.5075    30.6333    9.97898  104.00841    23.7749 4.2423e+00     14.174     0.5228 0.0000e+00
     13.000     8.5237    30.6125    9.94687  103.67844    23.7563 5.5971e+00     13.091     0.5212 0.0000e+00
     12.000     8.5440    30.5817    9.94039  103.60287    23.7294 7.6176e+00     12.166     0.5042 0.0000e+00
     11.000     8.5600    30.5541    9.94085  103.60707    23.7050 1.0576e+01     11.076     0.4822 0.0000e+00
     10.000     8.5629    30.5361    9.93727  103.59541    23.6897 1.4881e+01     10.134     0.4971 0.0000e+00
      9.000     8.5620    30.5273    9.92480  103.50830    23.6831 2.1164e+01      9.047     0.4930 0.0000e+00
      8.000     8.5679    30.5147    9.91420  103.48305    23.6728 2.9861e+01      8.040     0.4616 0.0000e+00
      7.000     8.5867    30.4940    9.90650  103.51228    23.6545 4.3813e+01      7.131     0.4844 0.0000e+00
      6.000     8.6151    30.4756    9.90399  103.59230    23.6365 6.2416e+01      5.939     0.5135 0.0000e+00
      5.000     8.6571    30.4590    9.91399  103.88584    23.6193 9.2744e+01      5.159     0.5362 0.0000e+00
      4.000     8.7247    30.4099    9.91122  104.08093    23.5694 1.3715e+02      3.959     0.5850 0.0000e+00
      3.000     8.7705    30.3953   10.04742  104.37633    23.5542 2.1234e+02      3.094     0.6363 0.0000e+00
      2.000     8.9041    30.3224   10.87207  104.34010    23.4786 3.4869e+02      2.059     0.6057 0.0000e+00
      1.000     9.0091    30.2351   10.21404  104.18494    23.3950 7.8450e+02      1.166     0.5079 0.0000e+00
