* Sea-Bird SBE19plus Data File:
* FileName = C:\data\otf\2007\ctd-07061.hex
* Software Version 1.55
* Temperature SN =  5061
* Conductivity SN =  5061
* System UpLoad Time = Aug 15 2007 16:13:58
* ds
* SeacatPlus V 1.6a  SERIAL NO. 5061    15 Aug 2007  15:31:53
* vbatt = 10.9, vlith =  8.7, ioper =  61.6 ma, ipump =  57.5 ma, 
* iext01 =  95.2 ma
* iext23 =  58.1 ma
* 
* status = not logging
* number of scans to average = 1
* samples = 153039, free = 288466, casts = 154
* mode = profile, minimum cond freq = 3000, pump delay = 60 sec
* autorun = no, ignore magnetic switch = no
* battery type = alkaline, battery cutoff =  7.3 volts
* pressure sensor = strain gauge, range = 870.0
* SBE 38 = no, Gas Tension Device = no
* Ext Volt 0 = yes, Ext Volt 1 = yes, Ext Volt 2 = yes, Ext Volt 3 = yes
* echo commands = yes
* output format = raw HEX
* S>
* 
* SeacatPlus V 1.6a  SERIAL NO. 5061    15 Aug 2007  15:32:18
* temperature:  05-oct-06
*     TA0 = 1.254184e-03
*     TA1 = 2.596730e-04
*     TA2 = 5.165612e-07
*     TA3 = 1.318931e-07
*     TOFFSET = 0.000000e+00
* conductivity:  05-oct-06
*     G = -9.978144e-01
*     H = 1.555200e-01
*     I = -4.839108e-04
*     J = 6.121100e-05
*     CF0 = 2.539936e+03
*     CPCOR = -9.570000e-08
*     CTCOR = 3.250000e-06
*     CSLOPE = 1.000000e+00
* pressure S/N = 2362539, range = 870 psia:  24-aug-06
*     PA0 = 2.171091e-01
*     PA1 = 2.647085e-03
*     PA2 = 1.419397e-11
*     PTCA0 = 5.242437e+05
*     PTCA1 = 7.545345e+00
*     PTCA2 = -1.835354e-01
*     PTCB0 = 2.537125e+01
*     PTCB1 = -1.750000e-03
*     PTCB2 = 0.000000e+00
*     PTEMPA0 = -5.753989e+01
*     PTEMPA1 = 5.235813e+01
*     PTEMPA2 = -4.015521e-02
*     POFFSET = 0.000000e+00
* volt 0: offset = -4.682842e-02, slope = 1.249147e+00
* volt 1: offset = -4.695158e-02, slope = 1.248145e+00
* volt 2: offset = -4.685263e-02, slope = 1.248783e+00
* volt 3: offset = -4.690316e-02, slope = 1.249508e+00
*     EXTFREQSF = 1.000002e+00
* dh
* cast  61 12 Jul 2007 09:43:26 samples 45950 to 46268, avg = 4, stop = mag switch
* S> 
# nquan = 10
# nvalues = 154                         
# units = specified
# name 0 = depSM: Depth [salt water, m]
# name 1 = tv290C: Temperature [ITS-90, deg C]
# name 2 = sal00: Salinity [PSU]
# name 3 = sbeox0Mg/L: Oxygen, SBE 43 [mg/l]
# name 4 = sbeox0PS: Oxygen, SBE 43 [% saturation]
# name 5 = sigma-t00: Density [sigma-t, Kg/m^3 ]
# name 6 = par: PAR/Irradiance, Biospherical/Licor
# name 7 = prdM: Pressure, Strain Gauge [db]
# name 8 = flECO-AFL: Fluorescence, Wetlab ECO-AFL/FL [mg/m^3]
# name 9 = flag: flag
# span 0 =      1.000,     79.000       
# span 1 =     8.3280,    10.5377       
# span 2 =    29.1148,    31.4008       
# span 3 =    8.65170,   10.87346       
# span 4 =   91.23201,  102.84067       
# span 5 =    22.2860,    24.4012       
# span 6 = 1.5479e+00, 1.5751e+02       
# span 7 =      1.759,     78.469       
# span 8 =     0.3648,     0.6191       
# span 9 = 0.0000e+00, 0.0000e+00       
# interval = meters: 1                  
# start_time = Jul 12 2007 09:43:26
# bad_flag = -9.990e-29
# sensor 0 = Frequency 0  temperature, 5061, 05-Oct-06
# sensor 1 = Frequency 1  conductivity, 5061, 05-Oct-06, cpcor = -9.5700e-08
# sensor 2 = Pressure Number
# sensor 3 = Extrnl Volt  0  irradiance (PAR), primary, 4751, 08/10/06
# sensor 4 = Extrnl Volt  1  Oxygen, SBE, primary, 1081, 10/24/06
# sensor 5 = Extrnl Volt  2  WET Labs, ECO_AFL
# sensor 6 = Extrnl Volt  3  userpoly 0, 0627, 10/11/06
# datcnv_date = Oct 15 2007 14:49:45, 5.37e
# datcnv_in = I:\bob d\OTF_GEM\2007\ctd-07061.hex I:\Willette\OTF\CTD\5061.con
# datcnv_skipover = 0
# filter_date = Oct 15 2007 15:02:25, 5.37e
# filter_in = I:\Willette\OTF\CTD\2007\CTD Data\ctd-07061.cnv
# filter_low_pass_tc_A = 1.000
# filter_low_pass_tc_B = 0.150
# filter_low_pass_A_vars = prdM
# filter_low_pass_B_vars =
# loopedit_date = Oct 15 2007 15:06:47, 5.37e
# loopedit_in = I:\Willette\OTF\CTD\2007\CTD Data\ctd-07061.cnv
# loopedit_minVelocity = 0.250                                                                                            
# loopedit_surfaceSoak: minDepth = 5.0, maxDepth = 20, useDeckPress = 1                                                   
# loopedit_excl_bad_scans = yes
# alignctd_date = Oct 15 2007 15:14:15, 5.37e
# alignctd_in = I:\Willette\OTF\CTD\2007\CTD Data\ctd-07061.cnv
# alignctd_adv = tv290C 0.500, sbeox0Mg/L 4.000, sbeox0PS 4.000                                                                                                                                                                      
# binavg_date = Oct 15 2007 15:18:44, 5.37e
# binavg_in = I:\Willette\OTF\CTD\2007\CTD Data\ctd-07061.cnv
# binavg_bintype = meters
# binavg_binsize = 1
# binavg_excl_bad_scans = yes
# binavg_skipover = 0
# binavg_surface_bin = no, min = 0.000, max = 0.000, value = 0.000
# file_type = ascii
*END*
      4.000    10.1144    29.1245    8.89640   93.90249    22.2892 4.7953e+01      4.758     0.5649 0.0000e+00
      5.000     9.7601    29.2466    8.98604   94.80922    22.3994 3.3928e+01      5.386     0.5232 0.0000e+00
      6.000     9.8955    29.5105    8.95812   94.51405    22.6447 2.5029e+01      6.019     0.4699 0.0000e+00
      7.000     9.7178    29.7876    8.96833   94.62857    22.9107 1.7406e+01      7.040     0.3999 0.0000e+00
      8.000     9.5811    29.9195    8.93341   94.26639    23.0313 1.2863e+01      8.292     0.3951 0.0000e+00
      9.000     9.3079    30.0931    8.65170   91.23201    23.1904 9.3758e+00      9.885     0.3995 0.0000e+00
     10.000     9.2884    30.1820    8.81984   92.99109    23.2743 7.2259e+00     10.494     0.3739 0.0000e+00
     11.000     9.2501    30.3750    9.10000   95.94973    23.4467 5.6243e+00     11.416     0.3648 0.0000e+00
     12.000     9.1746    30.4298    9.26292   97.67265    23.4972 4.4102e+00     12.539     0.3813 0.0000e+00
     13.000     9.1367    30.5075    9.32756   98.35902    23.5686 3.6068e+00     13.333     0.3760 0.0000e+00
     14.000     9.1119    30.5831    9.38910   98.98760    23.6359 2.9659e+00     14.307     0.3752 0.0000e+00
     15.000     9.0779    30.6291    9.43157   99.42080    23.6786 2.5489e+00     15.320     0.3998 0.0000e+00
     16.000     9.0486    30.6349    9.45273   99.61348    23.6856 2.2732e+00     16.183     0.3985 0.0000e+00
     17.000     9.0539    30.6624    9.46949   99.74516    23.7109 2.0714e+00     16.892     0.3800 0.0000e+00
     18.000     9.0550    30.7019    9.48705   99.88163    23.7466 1.9054e+00     17.816     0.3863 0.0000e+00
     19.000     9.0549    30.6944    9.50392  100.06246    23.7404 1.8012e+00     18.699     0.4004 0.0000e+00
     20.000     9.0598    30.6857    9.51412  100.13445    23.7336 1.7319e+00     19.446     0.3821 0.0000e+00
     21.000     9.0497    30.7125    9.52587  100.23301    23.7541 1.6790e+00     20.403     0.4031 0.0000e+00
     22.000     9.0339    30.6956    9.55089  100.47669    23.7420 1.6418e+00     21.626     0.3945 0.0000e+00
     23.000     9.0322    30.6803    9.56932  100.62673    23.7327 1.6151e+00     22.976     0.3808 0.0000e+00
     24.000     9.0256    30.6749    9.59844  100.83737    23.7283 1.5966e+00     24.627     0.3803 0.0000e+00
     25.000     8.9907    30.6853    9.61172  100.89686    23.7380 1.5843e+00     25.843     0.4094 0.0000e+00
     26.000     8.9520    30.7028    9.62501  100.99034    23.7545 1.5750e+00     26.895     0.3945 0.0000e+00
     27.000     8.9417    30.7405    9.63321  101.00107    23.7895 1.5681e+00     27.919     0.3988 0.0000e+00
     28.000     8.9152    30.7688    9.63074  100.90538    23.8166 1.5635e+00     28.908     0.4082 0.0000e+00
     29.000     8.8979    30.7627    9.64658  101.04293    23.8108 1.5601e+00     29.949     0.4187 0.0000e+00
     30.000     8.8987    30.7947    9.64504  101.05727    23.8402 1.5567e+00     30.756     0.3924 0.0000e+00
     31.000     8.8906    30.8017    9.65136  101.12045    23.8472 1.5559e+00     31.820     0.4056 0.0000e+00
     32.000 -9.990e-29 -9.990e-29 -9.990e-29 -9.990e-29 -9.990e-29 -9.990e-29 -9.990e-29 -9.990e-29 -9.990e-29
     33.000     8.8699    30.8090    9.65431  101.09987    23.8541 1.5533e+00     33.292     0.4134 0.0000e+00
     34.000     8.8516    30.8224    9.65882  101.07099    23.8664 1.5530e+00     34.612     0.4164 0.0000e+00
     35.000     8.8218    30.8363    9.65671  101.02392    23.8795 1.5523e+00     35.415     0.4089 0.0000e+00
     36.000     8.8134    30.8507    9.66314  101.05045    23.8925 1.5520e+00     36.302     0.4185 0.0000e+00
     37.000     8.7894    30.8822    9.66527  101.00972    23.9221 1.5514e+00     37.379     0.4132 0.0000e+00
     38.000     8.7565    30.8913    9.66745  101.03108    23.9307 1.5511e+00     38.288     0.4283 0.0000e+00
     39.000     8.7400    30.9156    9.67486  101.09382    23.9526 1.5509e+00     39.191     0.4457 0.0000e+00
     40.000     8.7230    30.9524    9.68186  101.13802    23.9867 1.5509e+00     40.250     0.4392 0.0000e+00
     41.000     8.6778    30.9745    9.68204  101.10578    24.0074 1.5507e+00     41.407     0.4291 0.0000e+00
     42.000     8.6460    30.9921    9.69004  101.19988    24.0232 1.5509e+00     42.335     0.4286 0.0000e+00
     43.000     8.6273    31.0409    9.69419  101.20291    24.0683 1.5505e+00     43.429     0.4261 0.0000e+00
     44.000     8.6378    31.0738    9.69484  101.20375    24.0989 1.5507e+00     44.395     0.4168 0.0000e+00
     45.000     8.6412    31.0864    9.69971  101.25340    24.1109 1.5506e+00     45.310     0.4164 0.0000e+00
     46.000     8.6335    31.0755    9.70469  101.29492    24.1011 1.5506e+00     46.347     0.4196 0.0000e+00
     47.000     8.6058    31.0731    9.70818  101.32621    24.0986 1.5507e+00     47.262     0.4269 0.0000e+00
     48.000     8.5689    31.0825    9.71176  101.36391    24.1071 1.5507e+00     48.272     0.4286 0.0000e+00
     49.000     8.5444    31.1155    9.71889  101.43050    24.1374 1.5507e+00     49.258     0.4286 0.0000e+00
     50.000     8.5119    31.1560    9.72381  101.47870    24.1749 1.5506e+00     50.291     0.4278 0.0000e+00
     51.000     8.4696    31.1827    9.72890  101.52284    24.1997 1.5505e+00     51.375     0.4631 0.0000e+00
     52.000     8.4790    31.2118    9.72993  101.51596    24.2262 1.5502e+00     52.111     0.4253 0.0000e+00
     53.000     8.4568    31.2433    9.73114  101.52801    24.2561 1.5506e+00     53.434     0.4364 0.0000e+00
     54.000     8.4392    31.2512    9.73248  101.54212    24.2632 1.5501e+00     54.354     0.4216 0.0000e+00
     55.000     8.4365    31.2752    9.73150  101.52557    24.2851 1.5503e+00     55.467     0.4332 0.0000e+00
     56.000     8.4133    31.2866    9.73385  101.53412    24.2965 1.5499e+00     56.467     0.4315 0.0000e+00
     57.000     8.4088    31.2894    9.73995  101.58523    24.2980 1.5500e+00     57.400     0.4490 0.0000e+00
     58.000     8.4087    31.3158    9.74508  101.64320    24.3231 1.5500e+00     58.399     0.4211 0.0000e+00
     59.000     8.4002    31.3147    9.74711  101.65802    24.3220 1.5503e+00     59.505     0.4320 0.0000e+00
     60.000     8.3998    31.3196    9.74689  101.64975    24.3265 1.5502e+00     60.309     0.4463 0.0000e+00
     61.000     8.3955    31.3244    9.74916  101.65513    24.3310 1.5499e+00     61.341     0.4429 0.0000e+00
     62.000     8.3917    31.3243    9.75520  101.70054    24.3309 1.5501e+00     62.625     0.4313 0.0000e+00
     63.000     8.3837    31.3307    9.76229  101.77763    24.3366 1.5499e+00     63.339     0.4410 0.0000e+00
     64.000     8.3781    31.3384    9.76178  101.77387    24.3437 1.5500e+00     64.518     0.4504 0.0000e+00
     65.000     8.3738    31.3490    9.76369  101.79046    24.3535 1.5502e+00     65.429     0.4476 0.0000e+00
     66.000     8.3738    31.3506    9.75730  101.72382    24.3550 1.5500e+00     66.585     0.4413 0.0000e+00
     67.000     8.3624    31.3489    9.76314  101.78632    24.3535 1.5496e+00     67.615     0.4534 0.0000e+00
     68.000     8.3535    31.3564    9.76827  101.84213    24.3604 1.5498e+00     68.555     0.4510 0.0000e+00
     69.000     8.3563    31.3700    9.77133  101.87145    24.3728 1.5495e+00     69.518     0.4523 0.0000e+00
     70.000     8.3503    31.3704    9.77256  101.88180    24.3733 1.5494e+00     70.577     0.4477 0.0000e+00
     71.000     8.3426    31.3744    9.76979  101.85610    24.3769 1.5497e+00     71.497     0.4575 0.0000e+00
     72.000     8.3310    31.3800    9.76652  101.82212    24.3821 1.5495e+00     72.563     0.4681 0.0000e+00
     73.000     8.3297    31.3968    9.76240  101.77993    24.3973 1.5495e+00     73.429     0.4760 0.0000e+00
     74.000     8.3296    31.3990    9.75893  101.74232    24.3996 1.5495e+00     74.342     0.5196 0.0000e+00
     75.000     8.3284    31.3995    9.75827  101.73467    24.4001 1.5491e+00     75.272     0.5147 0.0000e+00
     76.000     8.3284    31.3998    9.76126  101.76492    24.4003 1.5491e+00     76.091     0.5130 0.0000e+00
     77.000     8.3295    31.4003    9.76134  101.76995    24.4008 1.5494e+00     76.948     0.4886 0.0000e+00
     78.000     8.3302    31.4000    9.75634  101.71962    24.4005 1.5495e+00     77.769     0.5050 0.0000e+00
     79.000     8.3280    31.4003    9.74396  101.60379    24.4008 1.5491e+00     78.469     0.5111 0.0000e+00
     78.000     8.3289    31.4007    9.72683  101.42341    24.4010 1.5492e+00     78.144     0.5487 0.0000e+00
     77.000     8.3298    31.4008    9.73272  101.50138    24.4012 1.5492e+00     77.132     0.5529 0.0000e+00
     76.000     8.3349    31.3969    9.73315  101.53330    24.3977 1.5491e+00     75.671     0.5171 0.0000e+00
     75.000     8.3407    31.3964    9.73619  101.57056    24.3973 1.5492e+00     75.102     0.5256 0.0000e+00
     74.000     8.3429    31.3895    9.73593  101.57103    24.3910 1.5492e+00     74.286     0.5408 0.0000e+00
     73.000     8.3410    31.3848    9.73069  101.51731    24.3866 1.5488e+00     73.315     0.5307 0.0000e+00
     72.000     8.3380    31.3851    9.73229  101.53600    24.3868 1.5489e+00     72.557     0.5292 0.0000e+00
     71.000     8.3384    31.3888    9.73362  101.55412    24.3902 1.5488e+00     71.605     0.5338 0.0000e+00
     70.000     8.3407    31.3906    9.73122  101.52467    24.3919 1.5489e+00     70.659     0.5367 0.0000e+00
     69.000     8.3441    31.3876    9.73423  101.56485    24.3893 1.5488e+00     69.669     0.5573 0.0000e+00
     68.000     8.3508    31.3855    9.73198  101.55164    24.3873 1.5488e+00     68.684     0.5437 0.0000e+00
     67.000     8.3558    31.3791    9.72220  101.45379    24.3816 1.5487e+00     67.775     0.5120 0.0000e+00
     66.000     8.3644    31.3710    9.72172  101.44527    24.3741 1.5488e+00     66.716     0.5017 0.0000e+00
     65.000     8.3706    31.3638    9.72242  101.46280    24.3675 1.5488e+00     65.720     0.5130 0.0000e+00
     64.000     8.3727    31.3537    9.71632  101.41213    24.3582 1.5487e+00     64.610     0.4962 0.0000e+00
     63.000     8.3731    31.3524    9.71002  101.36398    24.3569 1.5485e+00     63.722     0.5190 0.0000e+00
     62.000     8.3771    31.3500    9.71133  101.36879    24.3549 1.5488e+00     62.618     0.4913 0.0000e+00
     61.000     8.3747    31.3481    9.71079  101.37857    24.3532 1.5488e+00     61.725     0.4984 0.0000e+00
     60.000     8.3763    31.3466    9.71326  101.44335    24.3517 1.5486e+00     60.630     0.4611 0.0000e+00
     59.000     8.3852    31.3467    9.70801  101.42450    24.3519 1.5487e+00     59.674     0.4719 0.0000e+00
     58.000     8.3887    31.3376    9.70631  101.47695    24.3436 1.5485e+00     58.672     0.4903 0.0000e+00
     57.000     8.3867    31.3338    9.70916  101.53241    24.3399 1.5484e+00     57.630     0.4685 0.0000e+00
     56.000     8.3931    31.3345    9.70117  101.49150    24.3407 1.5485e+00     56.646     0.4566 0.0000e+00
     55.000     8.4065    31.3279    9.69567  101.45473    24.3348 1.5485e+00     55.605     0.4774 0.0000e+00
     54.000     8.4100    31.3131    9.69502  101.46553    24.3213 1.5482e+00     54.634     0.4705 0.0000e+00
     53.000     8.4109    31.3078    9.69784  101.54239    24.3164 1.5485e+00     53.604     0.4357 0.0000e+00
     52.000     8.4346    31.3068    9.68828  101.45587    24.3156 1.5481e+00     52.661     0.4340 0.0000e+00
     51.000     8.4625    31.2793    9.68816  101.48398    24.2907 1.5484e+00     51.609     0.4474 0.0000e+00
     50.000     8.5030    31.2493    9.68660  101.51384    24.2631 1.5482e+00     50.585     0.4483 0.0000e+00
     49.000     8.5316    31.2003    9.67855  101.43800    24.2175 1.5483e+00     49.597     0.4403 0.0000e+00
     48.000     8.5561    31.1766    9.67538  101.41561    24.1958 1.5482e+00     48.564     0.4423 0.0000e+00
     47.000     8.5691    31.1564    9.66588  101.32460    24.1769 1.5480e+00     47.621     0.4424 0.0000e+00
     46.000     8.5979    31.1380    9.66044  101.33924    24.1599 1.5483e+00     46.610     0.4381 0.0000e+00
     45.000     8.6110    31.1061    9.66310  101.43349    24.1305 1.5481e+00     45.642     0.4232 0.0000e+00
     44.000     8.6378    31.0927    9.66178  101.43388    24.1180 1.5482e+00     44.692     0.4378 0.0000e+00
     43.000     8.6588    31.0570    9.66472  101.47778    24.0851 1.5482e+00     43.746     0.4340 0.0000e+00
     42.000     8.6708    31.0421    9.65602  101.41016    24.0711 1.5481e+00     42.702     0.4330 0.0000e+00
     41.000     8.7401    30.9953    9.64944  101.36245    24.0282 1.5480e+00     41.602     0.4349 0.0000e+00
     40.000     8.7864    30.9165    9.66422  101.53051    23.9550 1.5479e+00     40.350     0.4409 0.0000e+00
     39.000     8.8036    30.8974    9.65389  101.47313    23.9374 1.5480e+00     39.307     0.4322 0.0000e+00
     38.000     8.8052    30.8964    9.64176  101.40623    23.9363 1.5480e+00     38.239     0.4421 0.0000e+00
     37.000     8.8258    30.8806    9.63696  101.39460    23.9219 1.5482e+00     37.059     0.4303 0.0000e+00
     36.000     8.8445    30.8646    9.63143  101.33733    23.9070 1.5483e+00     36.031     0.4500 0.0000e+00
     35.000     8.8583    30.8486    9.62071  101.28275    23.8922 1.5491e+00     35.169     0.4330 0.0000e+00
     34.000     8.8753    30.8339    9.61783  101.30547    23.8786 1.5496e+00     34.157     0.4312 0.0000e+00
     33.000     8.8967    30.8177    9.61779  101.31424    23.8635 1.5502e+00     33.214     0.4221 0.0000e+00
     32.000     8.9046    30.7966    9.61909  101.34124    23.8438 1.5513e+00     32.203     0.4274 0.0000e+00
     31.000     8.8952    30.7903    9.60215  101.17781    23.8377 1.5527e+00     31.182     0.4176 0.0000e+00
     30.000     8.9055    30.8008    9.59979  101.17353    23.8475 1.5551e+00     30.094     0.4219 0.0000e+00
     29.000     8.9384    30.7888    9.59779  101.16835    23.8366 1.5581e+00     29.148     0.4128 0.0000e+00
     28.000     8.9675    30.7627    9.59671  101.19340    23.8126 1.5623e+00     28.311     0.4111 0.0000e+00
     27.000     8.9772    30.7233    9.59497  101.19351    23.7755 1.5679e+00     27.253     0.4126 0.0000e+00
     26.000     8.9800    30.7198    9.59050  101.17812    23.7722 1.5768e+00     26.351     0.4143 0.0000e+00
     25.000     8.9865    30.7155    9.59346  101.22570    23.7681 1.5887e+00     25.295     0.4123 0.0000e+00
     24.000     8.9989    30.7076    9.58981  101.21649    23.7607 1.6051e+00     24.022     0.4187 0.0000e+00
     23.000     9.0093    30.6970    9.59908  101.33302    23.7508 1.6276e+00     22.983     0.4237 0.0000e+00
     22.000     9.0193    30.6879    9.59684  101.32250    23.7422 1.6588e+00     21.981     0.4035 0.0000e+00
     21.000     9.0420    30.6782    9.58646  101.24503    23.7333 1.7056e+00     21.011     0.4083 0.0000e+00
     20.000     9.0499    30.6549    9.58544  101.31203    23.7114 1.7673e+00     20.029     0.4388 0.0000e+00
     19.000     9.0690    30.6496    9.59056  101.40825    23.7064 1.8548e+00     19.160     0.4161 0.0000e+00
     18.000     9.0776    30.6288    9.59223  101.53651    23.6868 1.9736e+00     18.126     0.3829 0.0000e+00
     17.000     9.0816    30.6253    9.59423  101.62609    23.6834 2.1553e+00     17.259     0.4130 0.0000e+00
     16.000     9.0948    30.6192    9.59430  101.78066    23.6777 2.4107e+00     16.270     0.3838 0.0000e+00
     15.000     9.1056    30.6064    9.59886  101.92688    23.6655 2.7503e+00     15.149     0.3991 0.0000e+00
     14.000     9.1125    30.5973    9.59418  101.97270    23.6570 3.2440e+00     14.190     0.3880 0.0000e+00
     13.000     9.1246    30.5885    9.58300  101.93929    23.6484 3.8821e+00     13.031     0.3675 0.0000e+00
     12.000     9.1872    30.5767    9.57906  102.39700    23.6384 4.8337e+00     12.163     0.4038 0.0000e+00
     11.000     9.2291    30.4870    9.57090  102.84067    23.5588 6.2019e+00     11.077     0.3735 0.0000e+00
     10.000     9.2997    30.4354    9.53744  102.73222    23.5125 8.1788e+00     10.129     0.3879 0.0000e+00
      9.000     9.3624    30.3462    9.49421  102.40579    23.4323 1.0827e+01      9.192     0.3914 0.0000e+00
      8.000     9.4681    30.2416    9.79679  101.57194    23.3380 1.5131e+01      8.122     0.4034 0.0000e+00
      7.000     9.5362    30.1360    9.22248   99.01916    23.2420 2.1075e+01      7.160     0.4048 0.0000e+00
      6.000     9.5959    30.0483    9.80133   97.57591    23.1628 2.8552e+01      6.104     0.4009 0.0000e+00
      5.000     9.6912    29.9912   10.87346   99.16762    23.1086 4.1110e+01      5.156     0.4008 0.0000e+00
      4.000    10.0386    29.9066 -9.990e-29 -9.990e-29    23.0287 5.9133e+01      4.249     0.4380 0.0000e+00
      3.000    10.2890    29.6208 -9.990e-29 -9.990e-29    22.7567 8.1700e+01      3.395     0.4918 0.0000e+00
      2.000    10.4565    29.2619 -9.990e-29 -9.990e-29    22.4262 1.1000e+02      2.458     0.5420 0.0000e+00
      1.000    10.5377    29.1148 -9.990e-29 -9.990e-29    22.2860 1.5751e+02      1.759     0.6191 0.0000e+00
