* Sea-Bird SBE19plus Data File:
* FileName = C:\data\otf\2007\ctd-07019.hex
* Software Version 1.55
* Temperature SN =  5061
* Conductivity SN =  5061
* System UpLoad Time = Aug 15 2007 15:58:08
* ds
* SeacatPlus V 1.6a  SERIAL NO. 5061    15 Aug 2007  15:31:53
* vbatt = 10.9, vlith =  8.7, ioper =  61.6 ma, ipump =  57.5 ma, 
* iext01 =  95.2 ma
* iext23 =  58.1 ma
* 
* status = not logging
* number of scans to average = 1
* samples = 153039, free = 288466, casts = 154
* mode = profile, minimum cond freq = 3000, pump delay = 60 sec
* autorun = no, ignore magnetic switch = no
* battery type = alkaline, battery cutoff =  7.3 volts
* pressure sensor = strain gauge, range = 870.0
* SBE 38 = no, Gas Tension Device = no
* Ext Volt 0 = yes, Ext Volt 1 = yes, Ext Volt 2 = yes, Ext Volt 3 = yes
* echo commands = yes
* output format = raw HEX
* S>
* 
* SeacatPlus V 1.6a  SERIAL NO. 5061    15 Aug 2007  15:32:18
* temperature:  05-oct-06
*     TA0 = 1.254184e-03
*     TA1 = 2.596730e-04
*     TA2 = 5.165612e-07
*     TA3 = 1.318931e-07
*     TOFFSET = 0.000000e+00
* conductivity:  05-oct-06
*     G = -9.978144e-01
*     H = 1.555200e-01
*     I = -4.839108e-04
*     J = 6.121100e-05
*     CF0 = 2.539936e+03
*     CPCOR = -9.570000e-08
*     CTCOR = 3.250000e-06
*     CSLOPE = 1.000000e+00
* pressure S/N = 2362539, range = 870 psia:  24-aug-06
*     PA0 = 2.171091e-01
*     PA1 = 2.647085e-03
*     PA2 = 1.419397e-11
*     PTCA0 = 5.242437e+05
*     PTCA1 = 7.545345e+00
*     PTCA2 = -1.835354e-01
*     PTCB0 = 2.537125e+01
*     PTCB1 = -1.750000e-03
*     PTCB2 = 0.000000e+00
*     PTEMPA0 = -5.753989e+01
*     PTEMPA1 = 5.235813e+01
*     PTEMPA2 = -4.015521e-02
*     POFFSET = 0.000000e+00
* volt 0: offset = -4.682842e-02, slope = 1.249147e+00
* volt 1: offset = -4.695158e-02, slope = 1.248145e+00
* volt 2: offset = -4.685263e-02, slope = 1.248783e+00
* volt 3: offset = -4.690316e-02, slope = 1.249508e+00
*     EXTFREQSF = 1.000002e+00
* dh
* cast  19 05 Jul 2007 12:44:44 samples 30833 to 31158, avg = 4, stop = mag switch
* S> 
# nquan = 10
# nvalues = 133                         
# units = specified
# name 0 = depSM: Depth [salt water, m]
# name 1 = tv290C: Temperature [ITS-90, deg C]
# name 2 = sal00: Salinity [PSU]
# name 3 = sbeox0Mg/L: Oxygen, SBE 43 [mg/l]
# name 4 = sbeox0PS: Oxygen, SBE 43 [% saturation]
# name 5 = sigma-t00: Density [sigma-t, Kg/m^3 ]
# name 6 = par: PAR/Irradiance, Biospherical/Licor
# name 7 = prdM: Pressure, Strain Gauge [db]
# name 8 = flECO-AFL: Fluorescence, Wetlab ECO-AFL/FL [mg/m^3]
# name 9 = flag: flag
# span 0 =      1.000,     68.000       
# span 1 =     7.8467,     8.9936       
# span 2 =    30.3549,    31.5555       
# span 3 =    8.60198,   11.61150       
# span 4 =   89.66502,  107.07892       
# span 5 =    23.4822,    24.5913       
# span 6 = 1.5476e+00, 2.4183e+02       
# span 7 =      1.480,     66.861       
# span 8 =     0.5478,     1.0616       
# span 9 = 0.0000e+00, 0.0000e+00       
# interval = meters: 1                  
# start_time = Jul 05 2007 12:44:44
# bad_flag = -9.990e-29
# sensor 0 = Frequency 0  temperature, 5061, 05-Oct-06
# sensor 1 = Frequency 1  conductivity, 5061, 05-Oct-06, cpcor = -9.5700e-08
# sensor 2 = Pressure Number
# sensor 3 = Extrnl Volt  0  irradiance (PAR), primary, 4751, 08/10/06
# sensor 4 = Extrnl Volt  1  Oxygen, SBE, primary, 1081, 10/24/06
# sensor 5 = Extrnl Volt  2  WET Labs, ECO_AFL
# sensor 6 = Extrnl Volt  3  userpoly 0, 0627, 10/11/06
# datcnv_date = Oct 15 2007 14:49:43, 5.37e
# datcnv_in = I:\bob d\OTF_GEM\2007\ctd-07019.hex I:\Willette\OTF\CTD\5061.con
# datcnv_skipover = 0
# filter_date = Oct 15 2007 15:02:22, 5.37e
# filter_in = I:\Willette\OTF\CTD\2007\CTD Data\ctd-07019.cnv
# filter_low_pass_tc_A = 1.000
# filter_low_pass_tc_B = 0.150
# filter_low_pass_A_vars = prdM
# filter_low_pass_B_vars =
# loopedit_date = Oct 15 2007 15:06:45, 5.37e
# loopedit_in = I:\Willette\OTF\CTD\2007\CTD Data\ctd-07019.cnv
# loopedit_minVelocity = 0.250                                                                                            
# loopedit_surfaceSoak: minDepth = 5.0, maxDepth = 20, useDeckPress = 1                                                   
# loopedit_excl_bad_scans = yes
# alignctd_date = Oct 15 2007 15:14:13, 5.37e
# alignctd_in = I:\Willette\OTF\CTD\2007\CTD Data\ctd-07019.cnv
# alignctd_adv = tv290C 0.500, sbeox0Mg/L 4.000, sbeox0PS 4.000                                                                                                                                                                      
# binavg_date = Oct 15 2007 15:18:42, 5.37e
# binavg_in = I:\Willette\OTF\CTD\2007\CTD Data\ctd-07019.cnv
# binavg_bintype = meters
# binavg_binsize = 1
# binavg_excl_bad_scans = yes
# binavg_skipover = 0
# binavg_surface_bin = no, min = 0.000, max = 0.000, value = 0.000
# file_type = ascii
*END*
      3.000     8.9936    30.3555    8.60198   89.66502    23.4822 9.0280e+01      4.263     0.7559 0.0000e+00
      4.000     8.9809    30.3578    8.72397   90.88352    23.4859 6.5451e+01      5.172     0.7559 0.0000e+00
      5.000     8.9484    30.3591    9.05511   94.30906    23.4882 4.7311e+01      6.011     0.7679 0.0000e+00
      6.000     8.8862    30.3622    9.23665   96.19103    23.4917 3.4730e+01      6.660     0.7733 0.0000e+00
      7.000     8.8022    30.3833    9.44381   98.34707    23.5122 2.4169e+01      7.508     0.7627 0.0000e+00
      8.000 -9.990e-29 -9.990e-29 -9.990e-29 -9.990e-29 -9.990e-29 -9.990e-29 -9.990e-29 -9.990e-29 -9.990e-29
      9.000     8.7196    30.4612    9.58652   99.81856    23.5868 1.4880e+01      8.604     0.6804 0.0000e+00
     10.000     8.6164    30.5561    9.66931  100.67348    23.6744 9.0604e+00      9.539     0.6164 0.0000e+00
     11.000     8.4178    30.6620    9.73236  101.29966    23.7709 6.3250e+00     10.855     0.5552 0.0000e+00
     12.000     8.4850    30.7293    9.76112  101.61858    23.8319 5.5340e+00     11.119     0.5625 0.0000e+00
     13.000     8.4708    30.8553    9.78879  101.89805    23.9439 4.4944e+00     11.668     0.5600 0.0000e+00
     14.000     8.4624    30.9500    9.83253  102.28553    24.0269 3.6514e+00     12.902     0.5659 0.0000e+00
     15.000     8.4284    31.0001    9.90247  102.94772    24.0692 3.1472e+00     14.396     0.5899 0.0000e+00
     16.000     8.3491    31.0505    9.99180  103.78329    24.1208 2.7750e+00     16.276     0.6173 0.0000e+00
     17.000     8.2561    31.1613   10.03719  104.20075    24.2201 2.5035e+00     17.959     0.6297 0.0000e+00
     18.000     8.2557    31.1779   10.04364  104.21349    24.2350 2.3064e+00     18.490     0.6320 0.0000e+00
     19.000     8.2481    31.1934   10.05457  104.23697    24.2490 2.1302e+00     19.220     0.6635 0.0000e+00
     20.000     8.2378    31.2021   10.05103  104.14872    24.2571 2.0111e+00     20.227     0.6681 0.0000e+00
     21.000     8.2018    31.2155   10.05455  104.17372    24.2694 1.9258e+00     21.178     0.6523 0.0000e+00
     22.000     8.1961    31.2488   10.05644  104.19739    24.3002 1.8485e+00     22.277     0.6920 0.0000e+00
     23.000     8.1856    31.2588   10.06908  104.29134    24.3093 1.7907e+00     23.336     0.6758 0.0000e+00
     24.000     8.1806    31.2675   10.06077  104.13025    24.3175 1.7446e+00     24.391     0.6473 0.0000e+00
     25.000     8.1122    31.2721   10.06487  104.22869    24.3218 1.7046e+00     25.494     0.6637 0.0000e+00
     26.000     8.0803    31.3283   10.07804  104.36881    24.3746 1.6755e+00     26.473     0.7223 0.0000e+00
     27.000     8.0677    31.3674   10.06496  104.10928    24.4116 1.6499e+00     27.602     0.7861 0.0000e+00
     28.000     8.0640    31.3691   10.06954  104.16505    24.4134 1.6310e+00     28.289     0.7456 0.0000e+00
     29.000     8.0695    31.3745   10.07991  104.27437    24.4187 1.6152e+00     29.426     0.7600 0.0000e+00
     30.000     8.0601    31.3666   10.07780  104.16004    24.4112 1.6015e+00     30.543     0.7637 0.0000e+00
     31.000     8.0398    31.3740   10.07314  104.00023    24.4183 1.5913e+00     31.464     0.7570 0.0000e+00
     32.000     7.9947    31.3901   10.07953  104.05922    24.4336 1.5829e+00     32.517     0.7408 0.0000e+00
     33.000     8.0180    31.4163   10.06219  103.88189    24.4583 1.5761e+00     33.405     0.7651 0.0000e+00
     34.000     8.0461    31.4397   10.10718  104.34485    24.4807 1.5707e+00     34.707     0.8172 0.0000e+00
     35.000     8.0380    31.3929   10.06611  103.92449    24.4363 1.5663e+00     35.452     0.7273 0.0000e+00
     36.000     7.9619    31.3728   10.03223  103.57757    24.4173 1.5628e+00     36.717     0.7160 0.0000e+00
     37.000     7.9740    31.4300   10.05931  103.85616    24.4714 1.5601e+00     37.495     0.7249 0.0000e+00
     38.000     7.9760    31.4529   10.03845  103.64742    24.4931 1.5579e+00     38.682     0.8232 0.0000e+00
     39.000     7.9752    31.4505   10.07698  104.04294    24.4910 1.5555e+00     39.663     0.8424 0.0000e+00
     40.000     7.9037    31.4496   10.06190  103.88081    24.4901 1.5546e+00     40.557     0.8167 0.0000e+00
     41.000     7.8720    31.4773   10.07212  103.98340    24.5168 1.5535e+00     41.492     0.7989 0.0000e+00
     42.000     7.8615    31.5287   10.08355  104.09918    24.5657 1.5525e+00     42.495     0.8334 0.0000e+00
     43.000     7.8617    31.5440   10.04652  103.71591    24.5802 1.5514e+00     43.404     0.8740 0.0000e+00
     44.000     7.8613    31.5450   10.07892  104.05326    24.5812 1.5510e+00     44.364     0.9011 0.0000e+00
     45.000     7.8614    31.5443   10.07368  103.99816    24.5806 1.5506e+00     45.347     0.9180 0.0000e+00
     46.000     7.8631    31.5445   10.05533  103.80955    24.5808 1.5505e+00     46.436     0.9199 0.0000e+00
     47.000     7.8638    31.5439   10.09424  104.21233    24.5803 1.5500e+00     47.286     0.8996 0.0000e+00
     48.000     7.8635    31.5428   10.08030  104.07735    24.5792 1.5498e+00     48.105     0.8857 0.0000e+00
     49.000     7.8658    31.5423   10.09593  104.23502    24.5787 1.5497e+00     49.445     0.8829 0.0000e+00
     50.000     7.8663    31.5420   10.08499  104.12447    24.5784 1.5495e+00     50.205     0.8821 0.0000e+00
     51.000     7.8623    31.5388   10.06856  103.95146    24.5755 1.5495e+00     51.344     0.8298 0.0000e+00
     52.000     7.8623    31.5404   10.06429  103.90068    24.5769 1.5490e+00     52.530     0.9614 0.0000e+00
     53.000     7.8602    31.5431   10.08865  104.15795    24.5796 1.5491e+00     53.152     0.8872 0.0000e+00
     54.000     7.8589    31.5443   10.05673  103.83347    24.5809 1.5493e+00     54.627     1.0236 0.0000e+00
     55.000     7.8611    31.5453   10.09680  104.24346    24.5817 1.5490e+00     55.261     0.8881 0.0000e+00
     56.000     7.8596    31.5439   10.07483  104.02891    24.5803 1.5487e+00     56.539     0.9448 0.0000e+00
     57.000     7.8614    31.5444   10.08751  104.15696    24.5808 1.5492e+00     57.037     0.8875 0.0000e+00
     58.000     7.8724    31.5433   10.08198  104.10225    24.5799 1.5487e+00     58.702     0.8897 0.0000e+00
     59.000     7.8645    31.5411   10.09769  104.25622    24.5776 1.5490e+00     58.773     0.8469 0.0000e+00
     60.000     7.8651    31.5407   10.09305  104.20371    24.5774 1.5486e+00     59.781     0.8910 0.0000e+00
     61.000     7.8642    31.5424   10.07139  103.98130    24.5788 1.5489e+00     61.649     0.9499 0.0000e+00
     62.000     7.8710    31.5364   10.09587  104.21942    24.5731 1.5487e+00     63.449     0.9338 0.0000e+00
     63.000     7.8660    31.5369   10.07908  104.02744    24.5737 1.5486e+00     63.841     0.8501 0.0000e+00
     64.000     7.8634    31.5370   10.12552  104.53821    24.5738 1.5488e+00     64.950     0.8400 0.0000e+00
     65.000     7.8617    31.5416   10.08387  104.12139    24.5782 1.5487e+00     65.216     0.9147 0.0000e+00
     66.000     7.8607    31.5422   10.08501  104.14374    24.5787 1.5486e+00     65.692     0.9005 0.0000e+00
     67.000     7.8633    31.5441   10.09399  104.24067    24.5805 1.5487e+00     66.270     0.8659 0.0000e+00
     68.000     7.8679    31.5420   10.07628  104.06484    24.5786 1.5476e+00     66.861     1.0600 0.0000e+00
     67.000     7.8560    31.5400   10.10316  104.31598    24.5765 1.5483e+00     66.531     0.8498 0.0000e+00
     66.000     7.8467    31.5470   10.10069  104.31210    24.5832 1.5483e+00     65.852     0.9141 0.0000e+00
     65.000     7.8602    31.5555   10.10649  104.34658    24.5913 1.5484e+00     65.112     1.0133 0.0000e+00
     64.000     7.8738    31.5457   10.09726  104.24511    24.5820 1.5484e+00     64.228     0.9691 0.0000e+00
     63.000     7.8771    31.5355   10.09492  104.22038    24.5723 1.5485e+00     63.454     0.9528 0.0000e+00
     62.000     7.8802    31.5299   10.09838  104.27952    24.5670 1.5485e+00     62.505     0.8522 0.0000e+00
     61.000     7.8819    31.5286   10.10277  104.32766    24.5657 1.5490e+00     61.339     0.8947 0.0000e+00
     60.000     7.8664    31.5301   10.09485  104.25202    24.5672 1.5484e+00     60.598     0.9140 0.0000e+00
     59.000     7.8786    31.5428   10.08351  104.13882    24.5792 1.5484e+00     59.544     0.9269 0.0000e+00
     58.000     7.8795    31.5317   10.11053  104.42006    24.5688 1.5489e+00     58.523     0.9064 0.0000e+00
     57.000     7.8663    31.5288   10.09975  104.31397    24.5660 1.5486e+00     57.660     0.8687 0.0000e+00
     56.000     7.8626    31.5387   10.10142  104.32612    24.5755 1.5489e+00     56.616     0.9271 0.0000e+00
     55.000     7.8656    31.5421   10.10010  104.30997    24.5787 1.5487e+00     55.635     0.9471 0.0000e+00
     54.000     7.8807    31.5425   10.10794  104.38954    24.5791 1.5483e+00     54.548     0.9430 0.0000e+00
     53.000     7.8773    31.5319   10.10660  104.38705    24.5689 1.5484e+00     53.664     0.9628 0.0000e+00
     52.000     7.8820    31.5298   10.10659  104.38681    24.5670 1.5484e+00     52.662     0.9436 0.0000e+00
     51.000     7.8832    31.5249   10.09898  104.31206    24.5624 1.5483e+00     51.508     0.8759 0.0000e+00
     50.000     7.8863    31.5247   10.09631  104.29415    24.5622 1.5483e+00     50.634     0.8908 0.0000e+00
     49.000     7.8822    31.5208   10.08866  104.22120    24.5585 1.5487e+00     49.479     0.8930 0.0000e+00
     48.000     7.8816    31.5253   10.10378  104.36985    24.5628 1.5487e+00     48.526     0.9373 0.0000e+00
     47.000     7.8870    31.5252   10.10585  104.40181    24.5627 1.5489e+00     47.493     1.0395 0.0000e+00
     46.000     7.8874    31.5194   10.11447  104.49035    24.5571 1.5493e+00     46.389     1.0616 0.0000e+00
     45.000     7.8894    31.5207   10.11362  104.53016    24.5584 1.5493e+00     45.533     0.9153 0.0000e+00
     44.000     7.8964    31.5175   10.12187  104.64784    24.5554 1.5496e+00     44.423     0.9877 0.0000e+00
     43.000     7.8954    31.5114   10.11585  104.66708    24.5497 1.5500e+00     43.288     0.9142 0.0000e+00
     42.000     7.8957    31.5141   10.13755  104.94925    24.5522 1.5506e+00     42.406     0.8633 0.0000e+00
     41.000     7.9008    31.5131   10.13784  104.99620    24.5512 1.5516e+00     41.476     0.9092 0.0000e+00
     40.000     7.8987    31.5075   10.13973  104.98091    24.5458 1.5522e+00     40.211     0.8949 0.0000e+00
     39.000     7.9321    31.5034   10.13836  105.00756    24.5419 1.5535e+00     39.406     0.8786 0.0000e+00
     38.000     7.9544    31.4832   10.15024  105.16796    24.5228 1.5555e+00     38.434     0.8858 0.0000e+00
     37.000     7.9892    31.4573   10.14890  105.18187    24.4981 1.5579e+00     37.412     0.8561 0.0000e+00
     36.000     8.0336    31.4276   10.15227  105.19867    24.4700 1.5608e+00     36.416     0.7829 0.0000e+00
     35.000     8.0467    31.3879   10.14249  105.10896    24.4322 1.5644e+00     35.312     0.7754 0.0000e+00
     34.000     8.0325    31.3937   10.15340  105.23043    24.4375 1.5687e+00     34.340     0.7607 0.0000e+00
     33.000     8.0655    31.3935   10.16058  105.29589    24.4374 1.5743e+00     33.375     0.7936 0.0000e+00
     32.000     8.0789    31.3656   10.15654  105.27212    24.4108 1.5806e+00     32.349     0.7370 0.0000e+00
     31.000     8.0793    31.3529   10.14830  105.19980    24.3987 1.5889e+00     31.266     0.7054 0.0000e+00
     30.000     8.0758    31.3617   10.17846  105.55659    24.4070 1.5991e+00     30.316     0.7272 0.0000e+00
     29.000     8.0806    31.3558   10.18886  105.77002    24.4015 1.6128e+00     29.125     0.7465 0.0000e+00
     28.000     8.0838    31.3595   10.19025  105.82278    24.4049 1.6292e+00     28.112     0.7719 0.0000e+00
     27.000     8.0882    31.3526   10.19753  105.97135    24.3984 1.6468e+00     26.878     0.7673 0.0000e+00
     26.000     8.0965    31.3494   10.19541  105.96540    24.3954 1.6719e+00     25.883     0.7705 0.0000e+00
     25.000 -9.990e-29 -9.990e-29 -9.990e-29 -9.990e-29 -9.990e-29 -9.990e-29 -9.990e-29 -9.990e-29 -9.990e-29
     24.000     8.1216    31.3361   10.20412  106.11285    24.3827 1.7377e+00     24.266     0.7430 0.0000e+00
     23.000     8.1684    31.3248   10.22922  106.48799    24.3720 1.7862e+00     23.227     0.7319 0.0000e+00
     22.000     8.1888    31.2864   10.22024  106.49911    24.3359 1.8523e+00     22.082     0.6729 0.0000e+00
     21.000     8.2013    31.2643   10.20477  106.50958    24.3150 1.9399e+00     21.062     0.6660 0.0000e+00
     20.000     8.2281    31.2511   10.23381  107.07892    24.3029 2.0412e+00     20.010     0.6653 0.0000e+00
     19.000     8.2457    31.2240   10.18318  106.70105    24.2782 2.1719e+00     19.019     0.6397 0.0000e+00
     18.000     8.2528    31.2030   10.17015  106.66045    24.2587 2.3400e+00     18.098     0.6368 0.0000e+00
     17.000     8.2634    31.1909   10.11857  106.17626    24.2476 2.5812e+00     16.875     0.6248 0.0000e+00
     16.000     8.2861    31.1832   10.10207  106.06248    24.2409 2.8768e+00     15.981     0.6229 0.0000e+00
     15.000     8.3617    31.1477   10.09915  106.08036    24.2102 3.2963e+00     14.874     0.6299 0.0000e+00
     14.000     8.3851    31.0843   10.06845  105.76930    24.1535 3.8673e+00     14.124     0.6560 0.0000e+00
     13.000     8.4397    31.0337   10.06663  105.75735    24.1070 4.6252e+00     13.212     0.5478 0.0000e+00
     12.000     8.5731    30.9760   10.05530  105.64800    24.0575 5.6718e+00     12.152     0.5849 0.0000e+00
     11.000     8.6046    30.8543   10.03465  105.43526    23.9515 7.4028e+00     11.587     0.5488 0.0000e+00
     10.000     8.7753    30.7187   10.03532  105.46335    23.8295 9.5973e+00     10.521     0.5492 0.0000e+00
      9.000     8.8080    30.6113   10.05803  105.70960    23.7312 1.3162e+01      9.871     0.5839 0.0000e+00
      8.000     8.8721    30.4851   10.10608  106.22433    23.6129 1.8518e+01      8.730     0.6604 0.0000e+00
      7.000     8.9379    30.4076   10.17464  106.95439    23.5392 2.6048e+01      7.375     0.7192 0.0000e+00
      6.000     8.9624    30.3687   10.18116  107.02834    23.5005 3.6354e+01      6.005     0.7273 0.0000e+00
      5.000     8.9762    30.3641   10.05503  105.69528    23.4954 5.1672e+01      4.873     0.7519 0.0000e+00
      4.000     8.9823    30.3581   10.90543  103.69550    23.4891 7.2486e+01      3.952     0.7519 0.0000e+00
      3.000     8.9858    30.3561   11.50945  103.26490    23.4868 1.0000e+02      3.208     0.7576 0.0000e+00
      2.000     8.9873    30.3549   11.61150  102.67744    23.4852 1.3327e+02      2.360     0.7951 0.0000e+00
      1.000     8.9893    30.3549 -9.990e-29 -9.990e-29    23.4850 2.4183e+02      1.480     0.7705 0.0000e+00
