* Sea-Bird SBE19plus Data File:
* FileName = C:\data\otf\2007\ctd-07070.hex
* Software Version 1.55
* Temperature SN =  5061
* Conductivity SN =  5061
* System UpLoad Time = Aug 15 2007 16:16:44
* ds
* SeacatPlus V 1.6a  SERIAL NO. 5061    15 Aug 2007  15:31:53
* vbatt = 10.9, vlith =  8.7, ioper =  61.6 ma, ipump =  57.5 ma, 
* iext01 =  95.2 ma
* iext23 =  58.1 ma
* 
* status = not logging
* number of scans to average = 1
* samples = 153039, free = 288466, casts = 154
* mode = profile, minimum cond freq = 3000, pump delay = 60 sec
* autorun = no, ignore magnetic switch = no
* battery type = alkaline, battery cutoff =  7.3 volts
* pressure sensor = strain gauge, range = 870.0
* SBE 38 = no, Gas Tension Device = no
* Ext Volt 0 = yes, Ext Volt 1 = yes, Ext Volt 2 = yes, Ext Volt 3 = yes
* echo commands = yes
* output format = raw HEX
* S>
* 
* SeacatPlus V 1.6a  SERIAL NO. 5061    15 Aug 2007  15:32:18
* temperature:  05-oct-06
*     TA0 = 1.254184e-03
*     TA1 = 2.596730e-04
*     TA2 = 5.165612e-07
*     TA3 = 1.318931e-07
*     TOFFSET = 0.000000e+00
* conductivity:  05-oct-06
*     G = -9.978144e-01
*     H = 1.555200e-01
*     I = -4.839108e-04
*     J = 6.121100e-05
*     CF0 = 2.539936e+03
*     CPCOR = -9.570000e-08
*     CTCOR = 3.250000e-06
*     CSLOPE = 1.000000e+00
* pressure S/N = 2362539, range = 870 psia:  24-aug-06
*     PA0 = 2.171091e-01
*     PA1 = 2.647085e-03
*     PA2 = 1.419397e-11
*     PTCA0 = 5.242437e+05
*     PTCA1 = 7.545345e+00
*     PTCA2 = -1.835354e-01
*     PTCB0 = 2.537125e+01
*     PTCB1 = -1.750000e-03
*     PTCB2 = 0.000000e+00
*     PTEMPA0 = -5.753989e+01
*     PTEMPA1 = 5.235813e+01
*     PTEMPA2 = -4.015521e-02
*     POFFSET = 0.000000e+00
* volt 0: offset = -4.682842e-02, slope = 1.249147e+00
* volt 1: offset = -4.695158e-02, slope = 1.248145e+00
* volt 2: offset = -4.685263e-02, slope = 1.248783e+00
* volt 3: offset = -4.690316e-02, slope = 1.249508e+00
*     EXTFREQSF = 1.000002e+00
* dh
* cast  70 14 Jul 2007 06:05:44 samples 48376 to 48618, avg = 4, stop = mag switch
* S> 
# nquan = 10
# nvalues = 109                         
# units = specified
# name 0 = depSM: Depth [salt water, m]
# name 1 = tv290C: Temperature [ITS-90, deg C]
# name 2 = sal00: Salinity [PSU]
# name 3 = sbeox0Mg/L: Oxygen, SBE 43 [mg/l]
# name 4 = sbeox0PS: Oxygen, SBE 43 [% saturation]
# name 5 = sigma-t00: Density [sigma-t, Kg/m^3 ]
# name 6 = par: PAR/Irradiance, Biospherical/Licor
# name 7 = prdM: Pressure, Strain Gauge [db]
# name 8 = flECO-AFL: Fluorescence, Wetlab ECO-AFL/FL [mg/m^3]
# name 9 = flag: flag
# span 0 =      1.000,     57.000       
# span 1 =     8.4241,     9.1732       
# span 2 =    30.6239,    31.3266       
# span 3 =    8.56612,   11.32471       
# span 4 =   90.57907,  102.40104       
# span 5 =    23.6673,    24.3292       
# span 6 = 1.5499e+00, 3.5181e+01       
# span 7 =      1.749,     56.388       
# span 8 =     0.5034,     1.1806       
# span 9 = 0.0000e+00, 0.0000e+00       
# interval = meters: 1                  
# start_time = Jul 14 2007 06:05:44
# bad_flag = -9.990e-29
# sensor 0 = Frequency 0  temperature, 5061, 05-Oct-06
# sensor 1 = Frequency 1  conductivity, 5061, 05-Oct-06, cpcor = -9.5700e-08
# sensor 2 = Pressure Number
# sensor 3 = Extrnl Volt  0  irradiance (PAR), primary, 4751, 08/10/06
# sensor 4 = Extrnl Volt  1  Oxygen, SBE, primary, 1081, 10/24/06
# sensor 5 = Extrnl Volt  2  WET Labs, ECO_AFL
# sensor 6 = Extrnl Volt  3  userpoly 0, 0627, 10/11/06
# datcnv_date = Oct 15 2007 14:49:45, 5.37e
# datcnv_in = I:\bob d\OTF_GEM\2007\ctd-07070.hex I:\Willette\OTF\CTD\5061.con
# datcnv_skipover = 0
# filter_date = Oct 15 2007 15:02:25, 5.37e
# filter_in = I:\Willette\OTF\CTD\2007\CTD Data\ctd-07070.cnv
# filter_low_pass_tc_A = 1.000
# filter_low_pass_tc_B = 0.150
# filter_low_pass_A_vars = prdM
# filter_low_pass_B_vars =
# loopedit_date = Oct 15 2007 15:06:47, 5.37e
# loopedit_in = I:\Willette\OTF\CTD\2007\CTD Data\ctd-07070.cnv
# loopedit_minVelocity = 0.250                                                                                            
# loopedit_surfaceSoak: minDepth = 5.0, maxDepth = 20, useDeckPress = 1                                                   
# loopedit_excl_bad_scans = yes
# alignctd_date = Oct 15 2007 15:14:15, 5.37e
# alignctd_in = I:\Willette\OTF\CTD\2007\CTD Data\ctd-07070.cnv
# alignctd_adv = tv290C 0.500, sbeox0Mg/L 4.000, sbeox0PS 4.000                                                                                                                                                                      
# binavg_date = Oct 15 2007 15:18:44, 5.37e
# binavg_in = I:\Willette\OTF\CTD\2007\CTD Data\ctd-07070.cnv
# binavg_bintype = meters
# binavg_binsize = 1
# binavg_excl_bad_scans = yes
# binavg_skipover = 0
# binavg_surface_bin = no, min = 0.000, max = 0.000, value = 0.000
# file_type = ascii
*END*
      5.000     9.1691    30.6330    8.56612   90.57907    23.6757 1.0057e+01      4.214     0.5499 0.0000e+00
      6.000     9.1701    30.6545    8.87036   93.71156    23.6919 8.0895e+00      6.071     0.5656 0.0000e+00
      7.000     9.1544    30.6337    9.07108   95.73147    23.6748 6.6400e+00      7.906     0.5491 0.0000e+00
      8.000     9.1525    30.6443    9.21151   97.14618    23.6857 5.2844e+00      8.652     0.5671 0.0000e+00
      9.000     9.1512    30.6464    9.34384   98.49433    23.6878 4.2411e+00      9.488     0.5560 0.0000e+00
     10.000     9.1472    30.6487    9.42253   99.29220    23.6900 3.4757e+00     10.512     0.5436 0.0000e+00
     11.000     9.1275    30.6504    9.46485   99.69031    23.6918 2.9762e+00     11.555     0.5549 0.0000e+00
     12.000     9.1157    30.6634    9.49787   99.99401    23.7041 2.5654e+00     12.535     0.5599 0.0000e+00
     13.000     9.1096    30.6752    9.51469  100.14470    23.7157 2.2753e+00     13.399     0.5647 0.0000e+00
     14.000     9.0976    30.6817    9.53113  100.29272    23.7215 2.0673e+00     14.313     0.5815 0.0000e+00
     15.000     9.0826    30.6894    9.54760  100.40223    23.7290 1.9144e+00     15.395     0.6104 0.0000e+00
     16.000     9.0697    30.7020    9.55883  100.46851    23.7410 1.8065e+00     16.333     0.5783 0.0000e+00
     17.000     9.0301    30.7137    9.58154  100.61735    23.7522 1.7311e+00     17.415     0.5782 0.0000e+00
     18.000     8.9978    30.7407    9.60170  100.73479    23.7785 1.6768e+00     18.645     0.5701 0.0000e+00
     19.000     8.9822    30.7660    9.61349  100.80521    23.8025 1.6404e+00     19.538     0.5693 0.0000e+00
     20.000     8.9713    30.7827    9.62594  100.83434    23.8186 1.6170e+00     20.578     0.5717 0.0000e+00
     21.000 -9.990e-29 -9.990e-29 -9.990e-29 -9.990e-29 -9.990e-29 -9.990e-29 -9.990e-29 -9.990e-29 -9.990e-29
     22.000     8.9499    30.7987    9.64403  100.92458    23.8337 1.5910e+00     21.881     0.5446 0.0000e+00
     23.000     8.9219    30.8102    9.66640  101.07977    23.8449 1.5742e+00     23.140     0.5564 0.0000e+00
     24.000     8.9068    30.8277    9.68076  101.21397    23.8616 1.5681e+00     24.034     0.5615 0.0000e+00
     25.000     8.8959    30.8472    9.69782  101.35144    23.8799 1.5630e+00     24.910     0.5453 0.0000e+00
     26.000     8.8796    30.8637    9.70316  101.40079    23.8955 1.5602e+00     26.016     0.5419 0.0000e+00
     27.000     8.8392    30.8772    9.71772  101.54096    23.9079 1.5576e+00     27.251     0.5239 0.0000e+00
     28.000     8.8120    30.9049    9.72924  101.64927    23.9335 1.5564e+00     28.163     0.5144 0.0000e+00
     29.000     8.7574    30.9426    9.74144  101.76617    23.9690 1.5551e+00     29.356     0.5297 0.0000e+00
     30.000     8.7107    30.9854    9.75502  101.90051    24.0088 1.5540e+00     30.449     0.5454 0.0000e+00
     31.000     8.6756    31.0256    9.75982  101.94886    24.0466 1.5536e+00     31.401     0.5477 0.0000e+00
     32.000     8.6151    31.0648    9.76283  101.97996    24.0835 1.5532e+00     32.447     0.5457 0.0000e+00
     33.000     8.5772    31.0960    9.76757  102.02727    24.1126 1.5530e+00     33.338     0.5362 0.0000e+00
     34.000     8.5363    31.1467    9.76844  102.03686    24.1602 1.5525e+00     34.284     0.5255 0.0000e+00
     35.000     8.5079    31.1932    9.76943  102.04604    24.2039 1.5521e+00     35.320     0.5384 0.0000e+00
     36.000     8.4841    31.2288    9.77089  102.06247    24.2374 1.5521e+00     36.236     0.5409 0.0000e+00
     37.000     8.4698    31.2536    9.77479  102.10427    24.2606 1.5518e+00     37.225     0.5428 0.0000e+00
     38.000     8.4615    31.2823    9.77892  102.15070    24.2873 1.5518e+00     38.353     0.5133 0.0000e+00
     39.000     8.4569    31.2876    9.78131  102.17624    24.2923 1.5518e+00     39.284     0.5219 0.0000e+00
     40.000     8.4491    31.2937    9.77945  102.15755    24.2980 1.5518e+00     40.353     0.5194 0.0000e+00
     41.000     8.4433    31.3000    9.78049  102.16819    24.3041 1.5520e+00     41.414     0.5194 0.0000e+00
     42.000     8.4393    31.3059    9.78291  102.19412    24.3096 1.5518e+00     42.386     0.5312 0.0000e+00
     43.000     8.4376    31.3114    9.78622  102.22984    24.3146 1.5512e+00     43.436     0.5034 0.0000e+00
     44.000     8.4374    31.3149    9.79046  102.27708    24.3180 1.5513e+00     44.542     0.5251 0.0000e+00
     45.000     8.4367    31.3162    9.78489  102.21898    24.3190 1.5515e+00     45.442     0.5574 0.0000e+00
     46.000     8.4367    31.3166    9.78256  102.19344    24.3194 1.5516e+00     46.472     0.5631 0.0000e+00
     47.000     8.4360    31.3163    9.78288  102.19580    24.3193 1.5514e+00     47.388     0.5675 0.0000e+00
     48.000     8.4369    31.3162    9.78356  102.20335    24.3191 1.5513e+00     48.348     0.5799 0.0000e+00
     49.000     8.4371    31.3168    9.78126  102.17951    24.3198 1.5514e+00     49.328     0.5728 0.0000e+00
     50.000     8.4397    31.3170    9.78302  102.19749    24.3197 1.5513e+00     50.289     0.5677 0.0000e+00
     51.000     8.4398    31.3168    9.78700  102.23917    24.3196 1.5517e+00     51.162     0.6215 0.0000e+00
     52.000     8.4399    31.3137    9.78963  102.26906    24.3168 1.5513e+00     52.095     0.6287 0.0000e+00
     53.000     8.4400    31.3140    9.78633  102.23437    24.3170 1.5513e+00     52.923     0.6181 0.0000e+00
     54.000     8.4402    31.3141    9.78132  102.18121    24.3170 1.5510e+00     53.693     0.6370 0.0000e+00
     55.000     8.4410    31.3131    9.78009  102.16684    24.3162 1.5511e+00     54.426     0.9502 0.0000e+00
     56.000     8.4423    31.3131    9.77885  102.15264    24.3162 1.5510e+00     55.159     1.1064 0.0000e+00
     57.000     8.4428    31.3101    9.78926  102.25091    24.3135 1.5532e+00     56.388     1.1806 0.0000e+00
     56.000     8.4412    31.3109    9.79428  102.28655    24.3141 1.5508e+00     55.880     1.0604 0.0000e+00
     55.000     8.4413    31.3124    9.79342  102.27332    24.3156 1.5510e+00     55.036     0.8828 0.0000e+00
     54.000     8.4407    31.3117    9.78878  102.22968    24.3149 1.5508e+00     54.134     1.0324 0.0000e+00
     53.000     8.4337    31.3124    9.79241  102.27332    24.3156 1.5504e+00     53.265     0.9977 0.0000e+00
     52.000     8.4300    31.3178    9.78947  102.24642    24.3207 1.5504e+00     52.340     0.9292 0.0000e+00
     51.000     8.4275    31.3219    9.79203  102.28087    24.3245 1.5504e+00     51.360     0.8589 0.0000e+00
     50.000     8.4264    31.3228    9.80228  102.40104    24.3256 1.5502e+00     50.447     0.8239 0.0000e+00
     49.000     8.4279    31.3255    9.78557  102.23626    24.3280 1.5503e+00     49.407     0.8194 0.0000e+00
     48.000     8.4241    31.3228    9.78718  102.25479    24.3256 1.5503e+00     48.462     0.8237 0.0000e+00
     47.000     8.4241    31.3260    9.78633  102.25087    24.3286 1.5502e+00     47.449     0.7947 0.0000e+00
     46.000     8.4273    31.3266    9.78242  102.22624    24.3292 1.5503e+00     46.443     0.7701 0.0000e+00
     45.000     8.4300    31.3243    9.79525  102.37953    24.3270 1.5503e+00     45.478     0.7950 0.0000e+00
     44.000     8.4318    31.3208    9.78761  102.32562    24.3237 1.5505e+00     44.487     0.7800 0.0000e+00
     43.000     8.4374    31.3197    9.78273  102.30418    24.3226 1.5502e+00     43.469     0.8331 0.0000e+00
     42.000     8.4469    31.3139    9.77901  102.31449    24.3173 1.5503e+00     42.468     0.7810 0.0000e+00
     41.000     8.4506    31.3028    9.76270  102.22990    24.3072 1.5504e+00     41.437     0.7632 0.0000e+00
     40.000     8.4522    31.2994    9.75598  102.23813    24.3040 1.5501e+00     40.453     0.7928 0.0000e+00
     39.000     8.4594    31.2976    9.73789  102.11918    24.3023 1.5500e+00     39.429     0.7665 0.0000e+00
     38.000     8.4726    31.2898    9.73001  102.08527    24.2951 1.5499e+00     38.434     0.8098 0.0000e+00
     37.000     8.4890    31.2756    9.72350  102.07218    24.2820 1.5502e+00     37.447     0.7527 0.0000e+00
     36.000     8.5093    31.2569    9.71550  102.06374    24.2648 1.5499e+00     36.380     0.7650 0.0000e+00
     35.000     8.5435    31.2365    9.71428  102.13251    24.2458 1.5499e+00     35.338     0.7596 0.0000e+00
     34.000     8.6017    31.2021    9.70085  102.05025    24.2139 1.5505e+00     34.338     0.7748 0.0000e+00
     33.000     8.6516    31.1447    9.68510  101.91429    24.1601 1.5505e+00     33.327     0.7717 0.0000e+00
     32.000     8.6889    31.0970    9.68163  101.91067    24.1153 1.5505e+00     32.311     0.8177 0.0000e+00
     31.000     8.7246    31.0616    9.67334  101.85423    24.0818 1.5511e+00     31.249     0.7577 0.0000e+00
     30.000     8.7592    31.0313    9.67421  101.89811    24.0535 1.5519e+00     30.287     0.7752 0.0000e+00
     29.000     8.8089    30.9955    9.66374  101.81536    24.0200 1.5530e+00     29.274     0.8494 0.0000e+00
     28.000     8.8552    30.9438    9.65885  101.79672    23.9717 1.5539e+00     28.214     0.8286 0.0000e+00
     27.000     8.8754    30.9063    9.65727  101.80016    23.9365 1.5557e+00     27.206     0.8150 0.0000e+00
     26.000     8.8939    30.8876    9.65143  101.76418    23.9190 1.5581e+00     26.328     0.7737 0.0000e+00
     25.000     8.9135    30.8641    9.64323  101.73984    23.8969 1.5621e+00     25.194     0.7997 0.0000e+00
     24.000     8.9305    30.8476    9.64085  101.75438    23.8814 1.5672e+00     24.202     0.8098 0.0000e+00
     23.000     8.9477    30.8326    9.63618  101.73406    23.8672 1.5744e+00     23.208     0.7845 0.0000e+00
     22.000     8.9655    30.8175    9.62995  101.68390    23.8528 1.5848e+00     22.191     0.7812 0.0000e+00
     21.000     8.9786    30.8032    9.62585  101.65238    23.8390 1.5991e+00     21.222     0.7816 0.0000e+00
     20.000     8.9931    30.7899    9.61857  101.58038    23.8263 1.6200e+00     20.133     0.7979 0.0000e+00
     19.000     9.0128    30.7794    9.62181  101.61957    23.8162 1.6485e+00     19.157     0.7916 0.0000e+00
     18.000     9.0438    30.7619    9.61720  101.59448    23.7995 1.6884e+00     18.175     0.7680 0.0000e+00
     17.000     9.0665    30.7332    9.61654  101.60618    23.7722 1.7450e+00     17.130     0.7834 0.0000e+00
     16.000     9.0815    30.7153    9.61740  101.62755    23.7550 1.8245e+00     16.141     0.7978 0.0000e+00
     15.000     9.0898    30.7017    9.61474  101.60709    23.7420 1.9356e+00     15.095     0.8120 0.0000e+00
     14.000     9.0962    30.6956    9.60947  101.56313    23.7361 2.0924e+00     14.130     0.8325 0.0000e+00
     13.000     9.0984    30.6902    9.60800  101.55526    23.7308 2.3122e+00     13.094     0.8432 0.0000e+00
     12.000     9.1014    30.6890    9.60681  101.55767    23.7295 2.6248e+00     12.077     0.8097 0.0000e+00
     11.000     9.1143    30.6860    9.59832  101.48067    23.7268 3.0452e+00     11.079     0.8067 0.0000e+00
     10.000     9.1248    30.6747    9.59032  101.40628    23.7160 3.6137e+00     10.056     0.8110 0.0000e+00
      9.000     9.1318    30.6654    9.59315  101.44085    23.7070 4.3644e+00      9.074     0.8015 0.0000e+00
      8.000     9.1365    30.6599    9.53793  100.85008    23.7017 5.3805e+00      8.082     0.8078 0.0000e+00
      7.000     9.1423    30.6560    9.62662   99.59333    23.6979 6.8317e+00      7.096     0.8030 0.0000e+00
      6.000     9.1468    30.6513   11.15706   99.47346    23.6934 8.7666e+00      6.130     0.8370 0.0000e+00
      5.000     9.1527    30.6476   11.32471  100.11885    23.6898 1.1329e+01      5.157     0.8019 0.0000e+00
      4.000     9.1606    30.6432 -9.990e-29 -9.990e-29    23.6855 1.4272e+01      4.228     0.7699 0.0000e+00
      3.000     9.1683    30.6364 -9.990e-29 -9.990e-29    23.6790 1.7605e+01      3.331     0.7645 0.0000e+00
      2.000     9.1727    30.6285 -9.990e-29 -9.990e-29    23.6716 2.1843e+01      2.499     0.7396 0.0000e+00
      1.000     9.1732    30.6239 -9.990e-29 -9.990e-29    23.6673 3.5181e+01      1.749     0.7202 0.0000e+00
