* Sea-Bird SBE19plus Data File:
* FileName = C:\data\otf\2007\ctd-07090.hex
* Software Version 1.55
* Temperature SN =  5061
* Conductivity SN =  5061
* System UpLoad Time = Aug 15 2007 16:24:42
* ds
* SeacatPlus V 1.6a  SERIAL NO. 5061    15 Aug 2007  15:31:53
* vbatt = 10.9, vlith =  8.7, ioper =  61.6 ma, ipump =  57.5 ma, 
* iext01 =  95.2 ma
* iext23 =  58.1 ma
* 
* status = not logging
* number of scans to average = 1
* samples = 153039, free = 288466, casts = 154
* mode = profile, minimum cond freq = 3000, pump delay = 60 sec
* autorun = no, ignore magnetic switch = no
* battery type = alkaline, battery cutoff =  7.3 volts
* pressure sensor = strain gauge, range = 870.0
* SBE 38 = no, Gas Tension Device = no
* Ext Volt 0 = yes, Ext Volt 1 = yes, Ext Volt 2 = yes, Ext Volt 3 = yes
* echo commands = yes
* output format = raw HEX
* S>
* 
* SeacatPlus V 1.6a  SERIAL NO. 5061    15 Aug 2007  15:32:18
* temperature:  05-oct-06
*     TA0 = 1.254184e-03
*     TA1 = 2.596730e-04
*     TA2 = 5.165612e-07
*     TA3 = 1.318931e-07
*     TOFFSET = 0.000000e+00
* conductivity:  05-oct-06
*     G = -9.978144e-01
*     H = 1.555200e-01
*     I = -4.839108e-04
*     J = 6.121100e-05
*     CF0 = 2.539936e+03
*     CPCOR = -9.570000e-08
*     CTCOR = 3.250000e-06
*     CSLOPE = 1.000000e+00
* pressure S/N = 2362539, range = 870 psia:  24-aug-06
*     PA0 = 2.171091e-01
*     PA1 = 2.647085e-03
*     PA2 = 1.419397e-11
*     PTCA0 = 5.242437e+05
*     PTCA1 = 7.545345e+00
*     PTCA2 = -1.835354e-01
*     PTCB0 = 2.537125e+01
*     PTCB1 = -1.750000e-03
*     PTCB2 = 0.000000e+00
*     PTEMPA0 = -5.753989e+01
*     PTEMPA1 = 5.235813e+01
*     PTEMPA2 = -4.015521e-02
*     POFFSET = 0.000000e+00
* volt 0: offset = -4.682842e-02, slope = 1.249147e+00
* volt 1: offset = -4.695158e-02, slope = 1.248145e+00
* volt 2: offset = -4.685263e-02, slope = 1.248783e+00
* volt 3: offset = -4.690316e-02, slope = 1.249508e+00
*     EXTFREQSF = 1.000002e+00
* dh
* cast  90 18 Jul 2007 08:35:45 samples 56081 to 56387, avg = 4, stop = mag switch
* S> 
# nquan = 10
# nvalues = 156                         
# units = specified
# name 0 = depSM: Depth [salt water, m]
# name 1 = tv290C: Temperature [ITS-90, deg C]
# name 2 = sal00: Salinity [PSU]
# name 3 = sbeox0Mg/L: Oxygen, SBE 43 [mg/l]
# name 4 = sbeox0PS: Oxygen, SBE 43 [% saturation]
# name 5 = sigma-t00: Density [sigma-t, Kg/m^3 ]
# name 6 = par: PAR/Irradiance, Biospherical/Licor
# name 7 = prdM: Pressure, Strain Gauge [db]
# name 8 = flECO-AFL: Fluorescence, Wetlab ECO-AFL/FL [mg/m^3]
# name 9 = flag: flag
# span 0 =      1.000,     80.000       
# span 1 =     8.2731,     9.2364       
# span 2 =    30.8637,    31.6008       
# span 3 =    8.82702,   10.44843       
# span 4 =   93.23309,  101.83556       
# span 5 =    23.8452,    24.5661       
# span 6 = 1.5478e+00, 1.4167e+02       
# span 7 =      1.695,     80.047       
# span 8 =     0.8064,     1.7892       
# span 9 = 0.0000e+00, 0.0000e+00       
# interval = meters: 1                  
# start_time = Jul 18 2007 08:35:45
# bad_flag = -9.990e-29
# sensor 0 = Frequency 0  temperature, 5061, 05-Oct-06
# sensor 1 = Frequency 1  conductivity, 5061, 05-Oct-06, cpcor = -9.5700e-08
# sensor 2 = Pressure Number
# sensor 3 = Extrnl Volt  0  irradiance (PAR), primary, 4751, 08/10/06
# sensor 4 = Extrnl Volt  1  Oxygen, SBE, primary, 1081, 10/24/06
# sensor 5 = Extrnl Volt  2  WET Labs, ECO_AFL
# sensor 6 = Extrnl Volt  3  userpoly 0, 0627, 10/11/06
# datcnv_date = Oct 15 2007 14:49:46, 5.37e
# datcnv_in = I:\bob d\OTF_GEM\2007\ctd-07090.hex I:\Willette\OTF\CTD\5061.con
# datcnv_skipover = 0
# filter_date = Oct 15 2007 15:02:27, 5.37e
# filter_in = I:\Willette\OTF\CTD\2007\CTD Data\ctd-07090.cnv
# filter_low_pass_tc_A = 1.000
# filter_low_pass_tc_B = 0.150
# filter_low_pass_A_vars = prdM
# filter_low_pass_B_vars =
# loopedit_date = Oct 15 2007 15:06:49, 5.37e
# loopedit_in = I:\Willette\OTF\CTD\2007\CTD Data\ctd-07090.cnv
# loopedit_minVelocity = 0.250                                                                                            
# loopedit_surfaceSoak: minDepth = 5.0, maxDepth = 20, useDeckPress = 1                                                   
# loopedit_excl_bad_scans = yes
# alignctd_date = Oct 15 2007 15:14:16, 5.37e
# alignctd_in = I:\Willette\OTF\CTD\2007\CTD Data\ctd-07090.cnv
# alignctd_adv = tv290C 0.500, sbeox0Mg/L 4.000, sbeox0PS 4.000                                                                                                                                                                      
# binavg_date = Oct 15 2007 15:18:45, 5.37e
# binavg_in = I:\Willette\OTF\CTD\2007\CTD Data\ctd-07090.cnv
# binavg_bintype = meters
# binavg_binsize = 1
# binavg_excl_bad_scans = yes
# binavg_skipover = 0
# binavg_surface_bin = no, min = 0.000, max = 0.000, value = 0.000
# file_type = ascii
*END*
      4.000     9.2110    30.8815    8.82702   93.23309    23.8590 4.9010e+01      5.060     0.9056 0.0000e+00
      5.000     9.1797    30.8863    8.92681   94.24556    23.8642 3.7410e+01      5.780     0.8784 0.0000e+00
      6.000     9.1576    30.8855    8.91441   94.01044    23.8649 3.0133e+01      6.539     0.8723 0.0000e+00
      7.000     9.1460    30.9180    8.97135   94.57571    23.8963 2.4132e+01      7.417     0.8064 0.0000e+00
      8.000     9.1461    30.9337    9.01451   95.00334    23.9117 1.9552e+01      8.205     0.8254 0.0000e+00
      9.000     9.1416    30.9469    9.06397   95.50332    23.9238 1.5401e+01      9.077     0.8330 0.0000e+00
     10.000     9.1318    30.9496    9.07246   95.56384    23.9260 1.2359e+01      9.970     0.8375 0.0000e+00
     11.000     9.0925    30.9559    9.11407   95.93844    23.9317 9.9530e+00     10.850     0.8467 0.0000e+00
     12.000     9.0289    30.9727    9.13110   96.02747    23.9472 7.9186e+00     12.054     0.8472 0.0000e+00
     13.000     9.0259    31.0242    9.10158   95.63387    23.9974 6.6084e+00     12.998     0.8634 0.0000e+00
     14.000     9.0151    31.0525    9.11721   95.72051    24.0241 5.4837e+00     14.199     0.8603 0.0000e+00
     15.000     9.0061    31.0622    9.16897   96.18422    24.0338 4.6533e+00     15.356     0.8847 0.0000e+00
     16.000     8.9749    31.0591    9.14186   95.82658    24.0322 4.0040e+00     16.525     0.8481 0.0000e+00
     17.000     8.9152    31.0708    9.22783   96.66810    24.0430 3.4843e+00     17.379     0.8550 0.0000e+00
     18.000     8.8842    31.1099    9.35421   97.96907    24.0809 3.0953e+00     18.464     0.8793 0.0000e+00
     19.000     8.8664    31.1494    9.42268   98.66186    24.1189 2.7803e+00     19.435     0.9103 0.0000e+00
     20.000     8.8558    31.1648    9.46542   99.08493    24.1344 2.5315e+00     20.360     0.9014 0.0000e+00
     21.000     8.8424    31.1760    9.49254   99.34638    24.1456 2.3369e+00     21.252     0.8814 0.0000e+00
     22.000     8.7970    31.1840    9.51254   99.53552    24.1538 2.1740e+00     22.391     0.8731 0.0000e+00
     23.000     8.7674    31.1825    9.53072   99.70687    24.1547 2.0573e+00     23.220     0.8849 0.0000e+00
     24.000     8.7163    31.2203    9.54741   99.85010    24.1910 1.9484e+00     24.242     0.9171 0.0000e+00
     25.000     8.6892    31.2420    9.56826  100.04099    24.2137 1.8706e+00     25.303     0.8726 0.0000e+00
     26.000     8.6578    31.2810    9.58224  100.15377    24.2514 1.8064e+00     26.207     0.8428 0.0000e+00
     27.000     8.6205    31.2978    9.59158  100.23293    24.2684 1.7598e+00     27.259     0.8815 0.0000e+00
     28.000     8.5958    31.3259    9.60194  100.33327    24.2959 1.7208e+00     28.206     0.9131 0.0000e+00
     29.000     8.5588    31.3511    9.61446  100.45772    24.3202 1.6858e+00     29.340     0.9406 0.0000e+00
     30.000     8.5412    31.3507    9.62417  100.55561    24.3236 1.6614e+00     30.248     0.9513 0.0000e+00
     31.000     8.5284    31.3748    9.62633  100.56838    24.3480 1.6385e+00     31.300     0.9473 0.0000e+00
     32.000     8.5104    31.3878    9.63420  100.62530    24.3611 1.6223e+00     32.593     0.9408 0.0000e+00
     33.000     8.4999    31.3923    9.63688  100.65133    24.3657 1.6091e+00     33.338     0.9535 0.0000e+00
     34.000     8.4863    31.4030    9.64328  100.69763    24.3764 1.5984e+00     34.468     0.9831 0.0000e+00
     35.000     8.4758    31.4129    9.64763  100.73094    24.3861 1.5898e+00     35.421     1.0043 0.0000e+00
     36.000     8.4621    31.4225    9.65382  100.78555    24.3952 1.5821e+00     36.394     1.0375 0.0000e+00
     37.000     8.4484    31.4306    9.66205  100.86278    24.4031 1.5762e+00     37.326     1.0529 0.0000e+00
     38.000 -9.990e-29 -9.990e-29 -9.990e-29 -9.990e-29 -9.990e-29 -9.990e-29 -9.990e-29 -9.990e-29 -9.990e-29
     39.000     8.4207    31.4492    9.67114  100.94410    24.4215 1.5677e+00     39.098     1.0550 0.0000e+00
     40.000     8.4104    31.4608    9.67532  100.97549    24.4330 1.5646e+00     40.123     1.0723 0.0000e+00
     41.000     8.4053    31.4707    9.67758  100.99088    24.4429 1.5617e+00     41.101     1.0919 0.0000e+00
     42.000     8.4023    31.4794    9.68182  101.02421    24.4516 1.5591e+00     42.396     1.1637 0.0000e+00
     43.000     8.4002    31.4809    9.68549  101.06063    24.4530 1.5577e+00     43.280     1.1852 0.0000e+00
     44.000     8.3904    31.4825    9.68494  101.04595    24.4546 1.5562e+00     44.400     1.1897 0.0000e+00
     45.000     8.3831    31.4854    9.69551  101.14399    24.4576 1.5553e+00     45.410     1.1918 0.0000e+00
     46.000     8.3749    31.4936    9.70198  101.20644    24.4654 1.5544e+00     46.343     1.1871 0.0000e+00
     47.000     8.3584    31.4992    9.70511  101.23705    24.4711 1.5532e+00     47.818     1.1996 0.0000e+00
     48.000     8.3576    31.5052    9.70267  101.20635    24.4766 1.5523e+00     48.353     1.2169 0.0000e+00
     49.000     8.3510    31.5148    9.70525  101.22541    24.4859 1.5519e+00     49.504     1.2229 0.0000e+00
     50.000     8.3472    31.5195    9.71213  101.29516    24.4903 1.5517e+00     50.438     1.2961 0.0000e+00
     51.000     8.3407    31.5253    9.71513  101.32010    24.4958 1.5514e+00     51.425     1.3901 0.0000e+00
     52.000     8.3325    31.5290    9.71768  101.33574    24.4992 1.5510e+00     52.502     1.5386 0.0000e+00
     53.000     8.3288    31.5366    9.71952  101.35358    24.5063 1.5501e+00     53.471     1.7742 0.0000e+00
     54.000     8.3245    31.5426    9.72272  101.38528    24.5119 1.5504e+00     54.464     1.7892 0.0000e+00
     55.000     8.3214    31.5469    9.72496  101.40262    24.5159 1.5502e+00     55.363     1.7610 0.0000e+00
     56.000     8.3166    31.5506    9.72693  101.41769    24.5194 1.5501e+00     56.412     1.6603 0.0000e+00
     57.000     8.3082    31.5546    9.73354  101.48286    24.5230 1.5503e+00     57.491     1.6343 0.0000e+00
     58.000     8.3068    31.5597    9.73431  101.49056    24.5278 1.5498e+00     58.324     1.6530 0.0000e+00
     59.000     8.3048    31.5663    9.73575  101.50330    24.5339 1.5499e+00     59.467     1.5843 0.0000e+00
     60.000     8.3008    31.5677    9.73792  101.52546    24.5352 1.5496e+00     60.419     1.5888 0.0000e+00
     61.000     8.2962    31.5709    9.73975  101.54879    24.5383 1.5494e+00     61.498     1.6683 0.0000e+00
     62.000     8.2964    31.5761    9.74149  101.56785    24.5431 1.5494e+00     62.543     1.5311 0.0000e+00
     63.000     8.2895    31.5778    9.74766  101.63293    24.5446 1.5496e+00     63.386     1.5170 0.0000e+00
     64.000     8.2860    31.5820    9.75277  101.68754    24.5486 1.5495e+00     64.505     1.5306 0.0000e+00
     65.000     8.2849    31.5863    9.74953  101.65517    24.5527 1.5492e+00     65.466     1.5059 0.0000e+00
     66.000     8.2800    31.5877    9.74667  101.62620    24.5540 1.5495e+00     66.521     1.4653 0.0000e+00
     67.000     8.2771    31.5912    9.75037  101.66398    24.5572 1.5492e+00     67.517     1.4068 0.0000e+00
     68.000     8.2759    31.5952    9.74945  101.65240    24.5609 1.5491e+00     68.568     1.4027 0.0000e+00
     69.000     8.2745    31.5973    9.74905  101.65068    24.5628 1.5490e+00     69.573     1.4035 0.0000e+00
     70.000     8.2740    31.5981    9.75178  101.68032    24.5636 1.5488e+00     70.553     1.3890 0.0000e+00
     71.000     8.2766    31.6005    9.75282  101.69351    24.5658 1.5492e+00     71.585     1.3828 0.0000e+00
     72.000     8.2770    31.5981    9.75049  101.67024    24.5636 1.5489e+00     72.510     1.3583 0.0000e+00
     73.000     8.2778    31.5967    9.74300  101.59279    24.5624 1.5487e+00     73.530     1.4483 0.0000e+00
     74.000     8.2787    31.5958    9.74470  101.61035    24.5615 1.5488e+00     74.428     1.3511 0.0000e+00
     75.000     8.2793    31.5950    9.74454  101.60942    24.5607 1.5487e+00     75.405     1.3559 0.0000e+00
     76.000     8.2796    31.5941    9.74425  101.60663    24.5599 1.5487e+00     76.374     1.3434 0.0000e+00
     77.000     8.2778    31.5941    9.74490  101.61199    24.5598 1.5487e+00     77.199     1.3269 0.0000e+00
     78.000     8.2798    31.5960    9.73959  101.55658    24.5616 1.5486e+00     78.119     1.3155 0.0000e+00
     79.000     8.2809    31.5939    9.74069  101.56897    24.5597 1.5484e+00     78.886     1.3542 0.0000e+00
     80.000     8.2827    31.5914    9.74544  101.61726    24.5573 1.5486e+00     80.047     1.3771 0.0000e+00
     79.000     8.2822    31.5916    9.74692  101.61665    24.5576 1.5485e+00     79.183     1.2929 0.0000e+00
     78.000     8.2816    31.5912    9.74466  101.59775    24.5571 1.5483e+00     77.989     1.2221 0.0000e+00
     77.000     8.2791    31.5925    9.74719  101.62591    24.5583 1.5481e+00     77.230     1.2695 0.0000e+00
     76.000     8.2765    31.5944    9.74961  101.65071    24.5601 1.5484e+00     76.371     1.2254 0.0000e+00
     75.000     8.2742    31.5977    9.74633  101.62711    24.5631 1.5480e+00     75.461     1.1907 0.0000e+00
     74.000     8.2733    31.5992    9.74912  101.66372    24.5645 1.5480e+00     74.601     1.2265 0.0000e+00
     73.000     8.2731    31.6008    9.74855  101.66156    24.5661 1.5481e+00     73.468     1.2261 0.0000e+00
     72.000     8.2736    31.6007    9.75053  101.68572    24.5659 1.5480e+00     72.651     1.1363 0.0000e+00
     71.000     8.2735    31.5995    9.74701  101.65197    24.5649 1.5480e+00     71.687     1.1622 0.0000e+00
     70.000     8.2749    31.5990    9.74815  101.67149    24.5646 1.5483e+00     70.565     1.1683 0.0000e+00
     69.000     8.2766    31.5982    9.75623  101.76127    24.5639 1.5480e+00     69.697     1.2407 0.0000e+00
     68.000     8.2766    31.5958    9.74982  101.70310    24.5616 1.5480e+00     68.673     1.2365 0.0000e+00
     67.000     8.2791    31.5949    9.74547  101.66547    24.5609 1.5481e+00     67.696     1.2507 0.0000e+00
     66.000     8.2869    31.5941    9.74568  101.67813    24.5600 1.5480e+00     66.665     1.2845 0.0000e+00
     65.000     8.2884    31.5869    9.74359  101.66550    24.5533 1.5479e+00     65.714     1.1735 0.0000e+00
     64.000     8.2908    31.5842    9.74758  101.71007    24.5508 1.5478e+00     64.677     1.1282 0.0000e+00
     63.000     8.2920    31.5819    9.73887  101.62135    24.5486 1.5481e+00     63.657     1.0894 0.0000e+00
     62.000     8.2964    31.5805    9.73385  101.57183    24.5474 1.5480e+00     62.756     1.1136 0.0000e+00
     61.000     8.3010    31.5764    9.73275  101.56372    24.5436 1.5479e+00     61.688     1.1137 0.0000e+00
     60.000     8.3070    31.5712    9.73735  101.61530    24.5388 1.5479e+00     60.626     1.1297 0.0000e+00
     59.000     8.3121    31.5655    9.74024  101.64809    24.5335 1.5483e+00     59.670     1.0996 0.0000e+00
     58.000     8.3204    31.5599    9.73778  101.62661    24.5283 1.5480e+00     58.646     1.1060 0.0000e+00
     57.000     8.3244    31.5513    9.73542  101.61177    24.5203 1.5479e+00     57.608     1.0665 0.0000e+00
     56.000     8.3256    31.5476    9.73598  101.63052    24.5169 1.5480e+00     56.642     1.0829 0.0000e+00
     55.000     8.3277    31.5462    9.72983  101.57802    24.5156 1.5480e+00     55.594     1.0778 0.0000e+00
     54.000     8.3301    31.5441    9.72547  101.54642    24.5136 1.5485e+00     54.549     1.0534 0.0000e+00
     53.000     8.3321    31.5418    9.72528  101.55261    24.5115 1.5485e+00     53.607     1.0474 0.0000e+00
     52.000     8.3348    31.5395    9.71750  101.47995    24.5094 1.5489e+00     52.515     1.0286 0.0000e+00
     51.000     8.3381    31.5370    9.71542  101.47060    24.5070 1.5489e+00     51.548     1.0388 0.0000e+00
     50.000     8.3480    31.5330    9.71946  101.53328    24.5034 1.5492e+00     50.493     1.0513 0.0000e+00
     49.000     8.3554    31.5229    9.71960  101.54817    24.4939 1.5495e+00     49.477     1.0518 0.0000e+00
     48.000     8.3638    31.5161    9.71713  101.53966    24.4875 1.5499e+00     48.425     1.0227 0.0000e+00
     47.000     8.3698    31.5084    9.71844  101.59039    24.4802 1.5505e+00     47.305     0.9825 0.0000e+00
     46.000     8.3750    31.5037    9.71728  101.64126    24.4757 1.5511e+00     46.076     0.9683 0.0000e+00
     45.000     8.3822    31.5001    9.70355  101.52707    24.4722 1.5519e+00     45.026     0.9841 0.0000e+00
     44.000     8.3913    31.4950    9.69708  101.48085    24.4673 1.5529e+00     43.994     1.0496 0.0000e+00
     43.000     8.3962    31.4892    9.68762  101.39790    24.4617 1.5543e+00     43.098     0.9613 0.0000e+00
     42.000     8.4012    31.4848    9.69253  101.45929    24.4574 1.5556e+00     42.155     0.9771 0.0000e+00
     41.000     8.4058    31.4823    9.69634  101.50819    24.4549 1.5574e+00     41.362     0.9641 0.0000e+00
     40.000     8.4119    31.4776    9.69863  101.55112    24.4503 1.5602e+00     40.436     0.9808 0.0000e+00
     39.000     8.4221    31.4745    9.70008  101.57854    24.4472 1.5628e+00     39.543     0.9640 0.0000e+00
     38.000     8.4447    31.4676    9.69829  101.57167    24.4403 1.5658e+00     38.402     1.0499 0.0000e+00
     37.000     8.4603    31.4585    9.70184  101.62042    24.4311 1.5701e+00     37.663     0.9673 0.0000e+00
     36.000     8.4758    31.4407    9.70730  101.70054    24.4136 1.5755e+00     36.582     0.9616 0.0000e+00
     35.000     8.4872    31.4292    9.70326  101.67765    24.4024 1.5821e+00     35.649     0.9533 0.0000e+00
     34.000     8.4995    31.4159    9.69828  101.64172    24.3898 1.5904e+00     34.653     0.9320 0.0000e+00
     33.000     8.5074    31.4063    9.70218  101.70678    24.3806 1.6003e+00     33.600     0.9375 0.0000e+00
     32.000     8.5207    31.4005    9.70421  101.77822    24.3747 1.6126e+00     32.538     0.9361 0.0000e+00
     31.000     8.5318    31.3907    9.69783  101.74944    24.3648 1.6281e+00     31.473     0.9338 0.0000e+00
     30.000     8.5466    31.3826    9.69016  101.74859    24.3568 1.6470e+00     30.419     0.9260 0.0000e+00
     29.000     8.5642    31.3704    9.69232  101.82237    24.3447 1.6704e+00     29.381     0.9553 0.0000e+00
     28.000     8.5806    31.3582    9.67134  101.67358    24.3326 1.7009e+00     28.331     0.9404 0.0000e+00
     27.000     8.6130    31.3423    9.67234  101.78573    24.3168 1.7384e+00     27.255     0.9357 0.0000e+00
     26.000     8.6386    31.3173    9.66683  101.83556    24.2922 1.7831e+00     26.185     0.9470 0.0000e+00
     25.000     8.6870    31.2955    9.65321  101.73289    24.2702 1.8414e+00     25.145     0.9288 0.0000e+00
     24.000     8.7184    31.2702    9.64378  101.73343    24.2449 1.9157e+00     24.046     0.9251 0.0000e+00
     23.000     8.7660    31.2467    9.63321  101.73021    24.2211 2.0031e+00     22.748     1.0147 0.0000e+00
     22.000     8.8025    31.2175    9.61854  101.59828    24.1927 2.1134e+00     21.741     0.9453 0.0000e+00
     21.000     8.8397    31.1986    9.61150  101.63076    24.1737 2.2543e+00     20.852     0.9123 0.0000e+00
     20.000     8.8543    31.1806    9.60342  101.63610    24.1542 2.4412e+00     19.916     0.9623 0.0000e+00
     19.000     8.8666    31.1683    9.59135  101.53112    24.1412 2.6636e+00     18.908     0.9024 0.0000e+00
     18.000     8.8816    31.1651    9.58267  101.44098    24.1377 2.9505e+00     18.046     0.8874 0.0000e+00
     17.000     8.8966    31.1536    9.57218  101.33098    24.1264 3.3120e+00     17.084     0.9019 0.0000e+00
     16.000     8.9678    31.1369    9.57361  101.36141    24.1107 3.7972e+00     15.987     0.8910 0.0000e+00
     15.000     8.9825    31.0936    9.57001  101.33894    24.0692 4.3957e+00     15.138     0.8720 0.0000e+00
     14.000     8.9880    31.0672    9.56770  101.33246    24.0433 5.1871e+00     14.131     0.8706 0.0000e+00
     13.000     9.0120    31.0628    9.56926  101.36391    24.0387 6.1854e+00     13.235     0.8547 0.0000e+00
     12.000     9.0511    31.0602    9.55799  101.26767    24.0364 7.4472e+00     12.416     0.8827 0.0000e+00
     11.000     9.1057    31.0212    9.55264  101.23126    23.9991 9.2258e+00     11.513     0.8372 0.0000e+00
     10.000     9.1280    30.9711    9.55511  101.28124    23.9509 1.1560e+01     10.585     0.8257 0.0000e+00
      9.000     9.1337    30.9400    9.55456  101.29085    23.9211 1.4583e+01      9.526     0.8395 0.0000e+00
      8.000     9.1392    30.9339    9.54146  101.17263    23.9155 1.8578e+01      8.395     0.8135 0.0000e+00
      7.000     9.1564    30.9255    9.50193  100.76902    23.9074 2.3775e+01      7.235     0.8174 0.0000e+00
      6.000     9.1798    30.9100    9.58031   99.00981    23.8923 3.0409e+01      6.057     0.8236 0.0000e+00
      5.000     9.2020    30.8918   10.44843   95.60012    23.8744 3.8755e+01      4.943     0.8498 0.0000e+00
      4.000     9.2151    30.8785 -9.990e-29 -9.990e-29    23.8610 4.8895e+01      3.972     0.8638 0.0000e+00
      3.000     9.2234    30.8724 -9.990e-29 -9.990e-29    23.8548 6.1028e+01      3.094     0.8690 0.0000e+00
      2.000     9.2344    30.8695 -9.990e-29 -9.990e-29    23.8515 7.4367e+01      2.356     0.9106 0.0000e+00
      1.000     9.2364    30.8637 -9.990e-29 -9.990e-29    23.8452 1.4167e+02      1.695     0.9523 0.0000e+00
