* Sea-Bird SBE19plus Data File:
* FileName = C:\data\otf\2007\ctd-07005.hex
* Software Version 1.55
* Temperature SN =  5061
* Conductivity SN =  5061
* System UpLoad Time = Aug 15 2007 15:34:50
* ds
* SeacatPlus V 1.6a  SERIAL NO. 5061    15 Aug 2007  15:31:53
* vbatt = 10.9, vlith =  8.7, ioper =  61.6 ma, ipump =  57.5 ma, 
* iext01 =  95.2 ma
* iext23 =  58.1 ma
* 
* status = not logging
* number of scans to average = 1
* samples = 153039, free = 288466, casts = 154
* mode = profile, minimum cond freq = 3000, pump delay = 60 sec
* autorun = no, ignore magnetic switch = no
* battery type = alkaline, battery cutoff =  7.3 volts
* pressure sensor = strain gauge, range = 870.0
* SBE 38 = no, Gas Tension Device = no
* Ext Volt 0 = yes, Ext Volt 1 = yes, Ext Volt 2 = yes, Ext Volt 3 = yes
* echo commands = yes
* output format = raw HEX
* S>
* 
* SeacatPlus V 1.6a  SERIAL NO. 5061    15 Aug 2007  15:32:18
* temperature:  05-oct-06
*     TA0 = 1.254184e-03
*     TA1 = 2.596730e-04
*     TA2 = 5.165612e-07
*     TA3 = 1.318931e-07
*     TOFFSET = 0.000000e+00
* conductivity:  05-oct-06
*     G = -9.978144e-01
*     H = 1.555200e-01
*     I = -4.839108e-04
*     J = 6.121100e-05
*     CF0 = 2.539936e+03
*     CPCOR = -9.570000e-08
*     CTCOR = 3.250000e-06
*     CSLOPE = 1.000000e+00
* pressure S/N = 2362539, range = 870 psia:  24-aug-06
*     PA0 = 2.171091e-01
*     PA1 = 2.647085e-03
*     PA2 = 1.419397e-11
*     PTCA0 = 5.242437e+05
*     PTCA1 = 7.545345e+00
*     PTCA2 = -1.835354e-01
*     PTCB0 = 2.537125e+01
*     PTCB1 = -1.750000e-03
*     PTCB2 = 0.000000e+00
*     PTEMPA0 = -5.753989e+01
*     PTEMPA1 = 5.235813e+01
*     PTEMPA2 = -4.015521e-02
*     POFFSET = 0.000000e+00
* volt 0: offset = -4.682842e-02, slope = 1.249147e+00
* volt 1: offset = -4.695158e-02, slope = 1.248145e+00
* volt 2: offset = -4.685263e-02, slope = 1.248783e+00
* volt 3: offset = -4.690316e-02, slope = 1.249508e+00
*     EXTFREQSF = 1.000002e+00
* dh
* cast   5 03 Jul 2007 09:38:50 samples 2828 to 4171, avg = 1, stop = mag switch
* S> 
# nquan = 10
# nvalues = 121                         
# units = specified
# name 0 = depSM: Depth [salt water, m]
# name 1 = tv290C: Temperature [ITS-90, deg C]
# name 2 = sal00: Salinity [PSU]
# name 3 = sbeox0Mg/L: Oxygen, SBE 43 [mg/l]
# name 4 = sbeox0PS: Oxygen, SBE 43 [% saturation]
# name 5 = sigma-t00: Density [sigma-t, Kg/m^3 ]
# name 6 = par: PAR/Irradiance, Biospherical/Licor
# name 7 = prdM: Pressure, Strain Gauge [db]
# name 8 = flECO-AFL: Fluorescence, Wetlab ECO-AFL/FL [mg/m^3]
# name 9 = flag: flag
# span 0 =      1.000,     63.000       
# span 1 =     7.4296,     7.8272       
# span 2 =    31.5497,    31.8091       
# span 3 =    8.67064,   11.52482       
# span 4 =   89.38392,  105.73215       
# span 5 =    24.5916,    24.8484       
# span 6 = 1.5846e+00, 9.0405e+02       
# span 7 =      1.086,     63.503       
# span 8 =     0.8990,     1.5234       
# span 9 = 0.0000e+00, 0.0000e+00       
# interval = meters: 1                  
# start_time = Jul 03 2007 09:38:50
# bad_flag = -9.990e-29
# sensor 0 = Frequency 0  temperature, 5061, 05-Oct-06
# sensor 1 = Frequency 1  conductivity, 5061, 05-Oct-06, cpcor = -9.5700e-08
# sensor 2 = Pressure Number
# sensor 3 = Extrnl Volt  0  irradiance (PAR), primary, 4751, 08/10/06
# sensor 4 = Extrnl Volt  1  Oxygen, SBE, primary, 1081, 10/24/06
# sensor 5 = Extrnl Volt  2  WET Labs, ECO_AFL
# sensor 6 = Extrnl Volt  3  userpoly 0, 0627, 10/11/06
# datcnv_date = Oct 15 2007 14:49:41, 5.37e
# datcnv_in = I:\bob d\OTF_GEM\2007\ctd-07005.hex I:\Willette\OTF\CTD\5061.con
# datcnv_skipover = 0
# filter_date = Oct 15 2007 15:02:17, 5.37e
# filter_in = I:\Willette\OTF\CTD\2007\CTD Data\ctd-07005.cnv
# filter_low_pass_tc_A = 1.000
# filter_low_pass_tc_B = 0.150
# filter_low_pass_A_vars = prdM
# filter_low_pass_B_vars =
# loopedit_date = Oct 15 2007 15:06:41, 5.37e
# loopedit_in = I:\Willette\OTF\CTD\2007\CTD Data\ctd-07005.cnv
# loopedit_minVelocity = 0.250                                                                                            
# loopedit_surfaceSoak: minDepth = 5.0, maxDepth = 20, useDeckPress = 1                                                   
# loopedit_excl_bad_scans = yes
# alignctd_date = Oct 15 2007 15:14:11, 5.37e
# alignctd_in = I:\Willette\OTF\CTD\2007\CTD Data\ctd-07005.cnv
# alignctd_adv = tv290C 0.500, sbeox0Mg/L 4.000, sbeox0PS 4.000                                                                                                                                                                      
# binavg_date = Oct 15 2007 15:18:40, 5.37e
# binavg_in = I:\Willette\OTF\CTD\2007\CTD Data\ctd-07005.cnv
# binavg_bintype = meters
# binavg_binsize = 1
# binavg_excl_bad_scans = yes
# binavg_skipover = 0
# binavg_surface_bin = no, min = 0.000, max = 0.000, value = 0.000
# file_type = ascii
*END*
      5.000     7.8272    31.5961    8.67064   89.38392    24.6255 1.5410e+02      5.037     1.1580 0.0000e+00
      6.000     7.8038    31.5882    8.74882   90.15494    24.6221 1.3066e+02      6.057     1.2312 0.0000e+00
      7.000     7.7837    31.5882    8.83763   91.01918    24.6254 1.1027e+02      7.068     1.1362 0.0000e+00
      8.000     7.7669    31.5880    8.95846   92.22916    24.6274 9.3901e+01      8.084     1.0967 0.0000e+00
      9.000     7.7428    31.5902    9.18793   94.55662    24.6325 8.0156e+01      9.081     1.0447 0.0000e+00
     10.000     7.7269    31.5900    9.01988   92.77387    24.6348 6.8538e+01     10.091     1.0627 0.0000e+00
     11.000     7.7104    31.5890    8.96152   92.08032    24.6360 5.8614e+01     11.104     1.0325 0.0000e+00
     12.000     7.6835    31.5946    9.36670   96.17825    24.6439 5.0121e+01     12.111     1.0020 0.0000e+00
     13.000     7.6437    31.5811    9.46776   97.19052    24.6381 4.3047e+01     13.126     1.0411 0.0000e+00
     14.000     7.6157    31.5812    9.57593   98.27957    24.6433 3.7001e+01     14.131     0.9271 0.0000e+00
     15.000     7.6026    31.5849    9.63888   98.90169    24.6481 3.1862e+01     15.143     0.9240 0.0000e+00
     16.000     7.5924    31.5881    9.69015   99.40798    24.6520 2.7505e+01     16.145     0.8990 0.0000e+00
     17.000     7.5800    31.5935    9.68635   99.35805    24.6579 2.3750e+01     17.155     0.9906 0.0000e+00
     18.000     7.5700    31.6005    9.76000  100.10181    24.6650 2.0558e+01     18.177     1.0633 0.0000e+00
     19.000     7.5637    31.6047    9.80736  100.57657    24.6692 1.7853e+01     19.165     1.0363 0.0000e+00
     20.000     7.5571    31.6108    9.83780  100.87183    24.6749 1.5515e+01     20.199     1.0399 0.0000e+00
     21.000     7.5492    31.6179    9.86593  101.15680    24.6814 1.3507e+01     21.188     1.0576 0.0000e+00
     22.000     7.5398    31.6301    9.88345  101.32655    24.6925 1.1789e+01     22.212     1.1218 0.0000e+00
     23.000     7.5374    31.6330    9.90674  101.55869    24.6951 1.0337e+01     23.197     1.2142 0.0000e+00
     24.000     7.5298    31.6428    9.92491  101.74266    24.7038 9.0901e+00     24.219     1.0931 0.0000e+00
     25.000     7.5266    31.6482    9.95169  102.01443    24.7087 8.0455e+00     25.224     1.1872 0.0000e+00
     26.000     7.5244    31.6515    9.96795  102.17575    24.7115 7.1432e+00     26.292     1.2084 0.0000e+00
     27.000     7.5222    31.6557    9.99180  102.41555    24.7151 6.3705e+00     27.253     1.2907 0.0000e+00
     28.000     7.5148    31.6701   10.00693  102.55421    24.7272 5.6939e+00     28.276     1.1063 0.0000e+00
     29.000     7.5112    31.6756   10.01664  102.63780    24.7320 5.1164e+00     29.272     1.2633 0.0000e+00
     30.000     7.4947    31.7066   10.02578  102.72176    24.7585 4.6275e+00     30.289     1.2723 0.0000e+00
     31.000     7.4829    31.7255   10.04540  102.92848    24.7750 4.2189e+00     31.286     1.1341 0.0000e+00
     32.000     7.4807    31.7323   10.05798  103.04316    24.7812 3.8624e+00     32.308     1.2187 0.0000e+00
     33.000     7.4839    31.7260   10.06523  103.12285    24.7757 3.5533e+00     33.308     1.2054 0.0000e+00
     34.000     7.4715    31.7450   10.06338  103.11344    24.7921 3.2790e+00     34.331     1.1603 0.0000e+00
     35.000     7.4793    31.7352   10.07006  103.14718    24.7838 3.0505e+00     35.326     1.1742 0.0000e+00
     36.000     7.4800    31.7285   10.08408  103.28698    24.7776 2.8504e+00     36.341     1.2285 0.0000e+00
     37.000     7.4551    31.7703   10.09353  103.38601    24.8141 2.6733e+00     37.369     1.1035 0.0000e+00
     38.000     7.4552    31.7721   10.09532  103.40239    24.8158 2.5072e+00     38.357     1.1085 0.0000e+00
     39.000     7.4569    31.7697   10.09899  103.43380    24.8138 2.4075e+00     39.387     1.1379 0.0000e+00
     40.000     7.4547    31.7717   10.10194  103.46387    24.8155 2.2968e+00     40.375     1.1138 0.0000e+00
     41.000     7.4506    31.7779   10.10286  103.48228    24.8210 2.2019e+00     41.402     1.0497 0.0000e+00
     42.000     7.4513    31.7780   10.11106  103.56342    24.8211 2.1198e+00     42.396     1.1563 0.0000e+00
     43.000     7.4567    31.7701   10.11411  103.59198    24.8142 2.0469e+00     43.411     1.1716 0.0000e+00
     44.000     7.4552    31.7716   10.12209  103.67575    24.8155 1.9843e+00     44.415     1.0404 0.0000e+00
     45.000     7.4531    31.7749   10.12586  103.70690    24.8183 1.9288e+00     45.430     1.1086 0.0000e+00
     46.000     7.4544    31.7727   10.11660  103.59213    24.8163 1.8807e+00     46.467     1.1208 0.0000e+00
     47.000     7.4484    31.7807   10.11997  103.62162    24.8234 1.8386e+00     47.424     1.0898 0.0000e+00
     48.000     7.4350    31.7987   10.12951  103.72165    24.8390 1.8016e+00     48.460     1.0451 0.0000e+00
     49.000     7.4316    31.8068   10.12814  103.70791    24.8464 1.7695e+00     49.467     1.0436 0.0000e+00
     50.000     7.4337    31.8039   10.12143  103.63615    24.8439 1.7422e+00     50.487     1.0276 0.0000e+00
     51.000     7.4336    31.8041   10.12704  103.69172    24.8439 1.7182e+00     51.482     0.9638 0.0000e+00
     52.000     7.4312    31.8061   10.13326  103.75549    24.8457 1.6976e+00     52.485     1.1658 0.0000e+00
     53.000     7.4303    31.8084   10.13882  103.81408    24.8478 1.6790e+00     53.495     1.0115 0.0000e+00
     54.000     7.4309    31.8077   10.13898  103.81438    24.8472 1.6625e+00     54.523     1.0046 0.0000e+00
     55.000     7.4315    31.8064   10.13854  103.81153    24.8461 1.6485e+00     55.538     1.0291 0.0000e+00
     56.000     7.4304    31.8075   10.14790  103.90904    24.8471 1.6362e+00     56.526     0.9956 0.0000e+00
     57.000     7.4318    31.8063   10.14595  103.88526    24.8459 1.6257e+00     57.555     1.0722 0.0000e+00
     58.000     7.4324    31.8054   10.14300  103.85400    24.8451 1.6161e+00     58.528     1.0498 0.0000e+00
     59.000     7.4296    31.8086   10.14694  103.89513    24.8480 1.6073e+00     59.578     0.9654 0.0000e+00
     60.000     7.4297    31.8091   10.14770  103.90357    24.8484 1.6002e+00     60.572     1.0091 0.0000e+00
     61.000     7.4303    31.8085   10.15225  103.95011    24.8479 1.5936e+00     61.570     1.0373 0.0000e+00
     62.000     7.4305    31.8083   10.16655  104.09818    24.8477 1.5882e+00     62.593     0.9948 0.0000e+00
     63.000     7.4320    31.8071   10.15287  103.96005    24.8465 1.5846e+00     63.503     1.0104 0.0000e+00
     62.000     7.4329    31.8059   10.15900  104.02325    24.8454 1.5888e+00     62.564     0.9582 0.0000e+00
     61.000     7.4322    31.8069   10.16239  104.05902    24.8463 1.5936e+00     61.613     0.9674 0.0000e+00
     60.000     7.4334    31.8054   10.16253  104.05916    24.8450 1.6009e+00     60.569     1.0259 0.0000e+00
     59.000     7.4329    31.8054   10.16257  104.05883    24.8451 1.6086e+00     59.577     1.0228 0.0000e+00
     58.000     7.4317    31.8077   10.16630  104.09895    24.8471 1.6171e+00     58.541     0.9738 0.0000e+00
     57.000     7.4331    31.8059   10.17037  104.14011    24.8455 1.6266e+00     57.549     0.9651 0.0000e+00
     56.000     7.4333    31.8047   10.17496  104.19312    24.8445 1.6384e+00     56.538     1.0570 0.0000e+00
     55.000     7.4369    31.8004   10.17101  104.15831    24.8408 1.6512e+00     55.530     1.0447 0.0000e+00
     54.000     7.4413    31.7936   10.16903  104.13798    24.8347 1.6656e+00     54.516     1.0323 0.0000e+00
     53.000     7.4413    31.7930   10.16872  104.13734    24.8342 1.6821e+00     53.510     1.0107 0.0000e+00
     52.000     7.4429    31.7911   10.17108  104.16945    24.8326 1.7009e+00     52.504     1.0738 0.0000e+00
     51.000     7.4487    31.7828   10.17477  104.21190    24.8253 1.7214e+00     51.483     0.9931 0.0000e+00
     50.000     7.4520    31.7777   10.17775  104.24762    24.8207 1.7446e+00     50.473     1.0791 0.0000e+00
     49.000     7.4557    31.7719   10.17045  104.16861    24.8157 1.7726e+00     49.463     1.1901 0.0000e+00
     48.000     7.4531    31.7748   10.17471  104.21235    24.8181 1.8042e+00     48.451     1.0454 0.0000e+00
     47.000     7.4526    31.7765   10.16963  104.16468    24.8197 1.8416e+00     47.437     1.0956 0.0000e+00
     46.000     7.4555    31.7718   10.17035  104.17965    24.8157 1.8831e+00     46.438     1.1789 0.0000e+00
     45.000     7.4615    31.7614   10.17266  104.20416    24.8067 1.9317e+00     45.436     1.1985 0.0000e+00
     44.000     7.4628    31.7591   10.17248  104.20883    24.8047 1.9879e+00     44.417     1.2827 0.0000e+00
     43.000     7.4662    31.7542   10.17451  104.23030    24.8005 2.0529e+00     43.403     1.1360 0.0000e+00
     42.000     7.4687    31.7493   10.17721  104.26178    24.7961 2.1273e+00     42.412     1.2094 0.0000e+00
     41.000     7.4704    31.7468   10.17850  104.27775    24.7940 2.2115e+00     41.380     1.1391 0.0000e+00
     40.000     7.4725    31.7433   10.17808  104.27639    24.7909 2.3078e+00     40.373     1.1250 0.0000e+00
     39.000     7.4753    31.7383   10.17836  104.28212    24.7866 2.4189e+00     39.367     1.1116 0.0000e+00
     38.000     7.4770    31.7355   10.17494  104.24962    24.7842 2.5482e+00     38.365     1.1018 0.0000e+00
     37.000     7.4813    31.7278   10.16713  104.16367    24.7776 2.6973e+00     37.333     1.2751 0.0000e+00
     36.000     7.4765    31.7342   10.16805  104.18068    24.7829 2.8697e+00     36.321     1.2280 0.0000e+00
     35.000     7.4789    31.7330   10.16459  104.14677    24.7823 3.0690e+00     35.291     1.1358 0.0000e+00
     34.000     7.4808    31.7266   10.17177  104.23146    24.7764 3.3043e+00     34.336     1.3566 0.0000e+00
     33.000     7.4844    31.7245   10.17392  104.26351    24.7749 3.5714e+00     33.312     1.2378 0.0000e+00
     32.000     7.4929    31.7096   10.17081  104.23827    24.7619 3.9491e+00     32.322     1.1050 0.0000e+00
     31.000     7.5004    31.6963   10.17387  104.27884    24.7503 4.2782e+00     31.300     1.5234 0.0000e+00
     30.000     7.5079    31.6832   10.17292  104.26881    24.7391 4.6998e+00     30.298     1.3116 0.0000e+00
     29.000     7.5143    31.6695   10.16901  104.23198    24.7272 5.1984e+00     29.255     1.3737 0.0000e+00
     28.000     7.5125    31.6732   10.16644  104.20919    24.7302 5.7854e+00     28.277     1.2447 0.0000e+00
     27.000     7.5164    31.6673   10.16191  104.16303    24.7253 6.4610e+00     27.261     1.1666 0.0000e+00
     26.000     7.5183    31.6628   10.16156  104.16665    24.7213 7.2516e+00     26.243     1.0528 0.0000e+00
     25.000     7.5197    31.6617   10.15208  104.06637    24.7204 8.1936e+00     25.239     1.0209 0.0000e+00
     24.000     7.5237    31.6535   10.16170  104.16471    24.7132 9.3095e+00     24.225     1.1441 0.0000e+00
     23.000     7.5210    31.6584   10.16467  104.19775    24.7175 1.0615e+01     23.223     1.0686 0.0000e+00
     22.000     7.5205    31.6596   10.16178  104.18660    24.7185 1.2122e+01     22.204     1.1676 0.0000e+00
     21.000     7.5271    31.6514   10.15710  104.14973    24.7116 1.3966e+01     21.193     1.0942 0.0000e+00
     20.000     7.5396    31.6307   10.14488  104.03739    24.6935 1.6167e+01     20.190     1.1122 0.0000e+00
     19.000     7.5464    31.6214   10.14501  104.05203    24.6852 1.8758e+01     19.175     1.0169 0.0000e+00
     18.000     7.5538    31.6134   10.14490  104.06783    24.6779 2.1847e+01     18.172     1.0343 0.0000e+00
     17.000     7.5610    31.6072   10.14084  104.04659    24.6721 2.5572e+01     17.141     1.1035 0.0000e+00
     16.000     7.5692    31.6021   10.13180  103.98087    24.6670 2.9981e+01     16.156     1.1241 0.0000e+00
     15.000     7.5787    31.5967   10.13646  104.04914    24.6614 3.5222e+01     15.131     0.9800 0.0000e+00
     14.000     7.5915    31.5923   10.15092  104.21615    24.6565 4.1326e+01     14.122     0.9962 0.0000e+00
     13.000     7.6003    31.5869   10.17086  104.44761    24.6507 4.8659e+01     13.125     0.9907 0.0000e+00
     12.000     7.6087    31.5850   10.12828  104.04647    24.6481 5.7655e+01     12.110     1.0068 0.0000e+00
     11.000     7.6196    31.5833   10.13115  104.10822    24.6456 6.8119e+01     11.104     1.1404 0.0000e+00
     10.000     7.6367    31.5778   10.13145  104.16857    24.6389 8.0423e+01     10.097     1.0553 0.0000e+00
      9.000     7.6508    31.5736   10.13147  104.22474    24.6337 9.4782e+01      9.079     1.0454 0.0000e+00
      8.000     7.6749    31.5696   10.14826  104.43507    24.6274 1.1119e+02      8.084     1.1957 0.0000e+00
      7.000     7.7010    31.5637   10.15933  104.60520    24.6191 1.3030e+02      7.059     1.0529 0.0000e+00
      6.000     7.7169    31.5604   10.16975  104.74349    24.6143 1.5959e+02      6.069     1.0750 0.0000e+00
      5.000     7.7424    31.5580   10.18360  104.91773    24.6091 1.9653e+02      5.039     1.1156 0.0000e+00
      4.000     7.7566    31.5526   10.20836  105.22773    24.6024 2.4330e+02      4.038     1.2108 0.0000e+00
      3.000     7.7687    31.5513   10.22941  105.51478    24.5997 3.0694e+02      3.030     1.0501 0.0000e+00
      2.000     7.7912    31.5512   11.52482  105.73215    24.5969 4.1154e+02      2.040     0.9976 0.0000e+00
      1.000     7.8224    31.5497   11.38481  103.91348    24.5916 9.0405e+02      1.086     0.9781 0.0000e+00
